{
    "resourceType": "Bundle",
    "type": "transaction",
    "entry": [
        {
            "resource": {
                "resourceType": "Practitioner",
                "id": "practitioner-1",
                "name": [
                    {
                        "use": "official",
                        "family": "Johnson",
                        "given": [
                            "Sarah"
                        ]
                    }
                ],
                "gender": "female",
                "qualification": [
                    {
                        "code": {
                            "coding": [
                                {
                                    "system": "http://terminology.hl7.org/CodeSystem/v2-0360/2.7",
                                    "code": "MD",
                                    "display": "Doctor of Medicine"
                                }
                            ],
                            "text": "Doctor of Medicine"
                        }
                    }
                ]
            },
            "request": {
                "method": "PUT",
                "url": "Practitioner/practitioner-1"
            }
        },
        {
            "resource": {
                "resourceType": "Location",
                "id": "location-1",
                "name": "Main Hospital",
                "description": "Main Hospital Building",
                "address": {
                    "line": [
                        "123 Medical Center Blvd"
                    ],
                    "city": "Springfield",
                    "state": "IL",
                    "postalCode": "62701"
                }
            },
            "request": {
                "method": "PUT",
                "url": "Location/location-1"
            }
        },
        {
            "resource": {
                "resourceType": "Appointment",
                "status": "booked",
                "description": "Annual physical examination",
                "start": "2025-07-15T09:00:00Z",
                "end": "2025-07-15T09:30:00Z",
                "participant": [
                    {
                        "actor": {
                            "reference": "Patient/422",
                            "display": "John Smith"
                        },
                        "status": "accepted",
                        "required": "required"
                    },
                    {
                        "actor": {
                            "reference": "Practitioner/practitioner-1",
                            "display": "Dr. Sarah Johnson"
                        },
                        "status": "accepted",
                        "required": "required"
                    },
                    {
                        "actor": {
                            "reference": "Location/location-1",
                            "display": "Main Hospital"
                        },
                        "status": "accepted"
                    }
                ],
                "serviceType": [
                    {
                        "coding": [
                            {
                                "system": "http://terminology.hl7.org/CodeSystem/service-type",
                                "code": "124",
                                "display": "General Practice"
                            }
                        ],
                        "text": "Annual Check-up"
                    }
                ]
            },
            "request": {
                "method": "POST",
                "url": "Appointment"
            }
        },
        {
            "resource": {
                "resourceType": "Appointment",
                "status": "booked",
                "description": "Blood test follow-up",
                "start": "2025-07-20T14:00:00Z",
                "end": "2025-07-20T14:15:00Z",
                "participant": [
                    {
                        "actor": {
                            "reference": "Patient/422",
                            "display": "John Smith"
                        },
                        "status": "accepted",
                        "required": "required"
                    },
                    {
                        "actor": {
                            "reference": "Practitioner/practitioner-1",
                            "display": "Dr. Sarah Johnson"
                        },
                        "status": "accepted",
                        "required": "required"
                    }
                ],
                "serviceType": [
                    {
                        "coding": [
                            {
                                "system": "http://terminology.hl7.org/CodeSystem/service-type",
                                "code": "124",
                                "display": "General Practice"
                            }
                        ],
                        "text": "Follow-up"
                    }
                ],
                "appointmentType": {
                    "coding": [
                        {
                            "system": "http://terminology.hl7.org/CodeSystem/v2-0276",
                            "code": "VIRTUAL",
                            "display": "Virtual Appointment"
                        }
                    ]
                },
                "telecom": [
                    {
                        "system": "url",
                        "value": "https://video.example.org/meet/123456"
                    }
                ]
            },
            "request": {
                "method": "POST",
                "url": "Appointment"
            }
        }
    ]
}