{
  "resourceType": "Bundle",
  "type": "transaction",
  "entry": [
    {
      "resource": {
        "resourceType": "Patient",
        "id": "patient-8699",
        "active": true,
        "name": [
          {
            "use": "official",
            "family": "Smith",
            "given": [
              "Sarah"
            ]
          }
        ],
        "gender": "female",
        "birthDate": "1960-1-1",
        "address": [
          {
            "use": "home",
            "line": [
              "100 Main St"
            ],
            "city": "Anytown",
            "state": "CA",
            "postalCode": "90345",
            "country": "USA"
          }
        ],
        "telecom": [
          {
            "system": "phone",
            "value": "555-100-4567",
            "use": "home"
          },
          {
            "system": "email",
            "value": "sarah.smith@example.com"
          }
        ]
      },
      "request": {
        "method": "PUT",
        "url": "Patient/patient-8699"
      }
    },
    {
      "resource": {
        "resourceType": "Patient",
        "id": "patient-9288",
        "active": true,
        "name": [
          {
            "use": "official",
            "family": "Johnson",
            "given": [
              "Michael"
            ]
          }
        ],
        "gender": "male",
        "birthDate": "1965-2-2",
        "address": [
          {
            "use": "home",
            "line": [
              "101 Main St"
            ],
            "city": "Anytown",
            "state": "CA",
            "postalCode": "91345",
            "country": "USA"
          }
        ],
        "telecom": [
          {
            "system": "phone",
            "value": "555-101-4568",
            "use": "home"
          },
          {
            "system": "email",
            "value": "michael.johnson@example.com"
          }
        ]
      },
      "request": {
        "method": "PUT",
        "url": "Patient/patient-9288"
      }
    },
    {
      "resource": {
        "resourceType": "Patient",
        "id": "patient-7568",
        "active": true,
        "name": [
          {
            "use": "official",
            "family": "Williams",
            "given": [
              "Jessica"
            ]
          }
        ],
        "gender": "female",
        "birthDate": "1970-3-3",
        "address": [
          {
            "use": "home",
            "line": [
              "102 Main St"
            ],
            "city": "Anytown",
            "state": "CA",
            "postalCode": "92345",
            "country": "USA"
          }
        ],
        "telecom": [
          {
            "system": "phone",
            "value": "555-102-4569",
            "use": "home"
          },
          {
            "system": "email",
            "value": "jessica.williams@example.com"
          }
        ]
      },
      "request": {
        "method": "PUT",
        "url": "Patient/patient-7568"
      }
    },
    {
      "resource": {
        "resourceType": "Patient",
        "id": "patient-9912",
        "active": true,
        "name": [
          {
            "use": "official",
            "family": "Brown",
            "given": [
              "Robert"
            ]
          }
        ],
        "gender": "male",
        "birthDate": "1975-4-4",
        "address": [
          {
            "use": "home",
            "line": [
              "103 Main St"
            ],
            "city": "Anytown",
            "state": "CA",
            "postalCode": "93345",
            "country": "USA"
          }
        ],
        "telecom": [
          {
            "system": "phone",
            "value": "555-103-4570",
            "use": "home"
          },
          {
            "system": "email",
            "value": "robert.brown@example.com"
          }
        ]
      },
      "request": {
        "method": "PUT",
        "url": "Patient/patient-9912"
      }
    },
    {
      "resource": {
        "resourceType": "Patient",
        "id": "patient-0510",
        "active": true,
        "name": [
          {
            "use": "official",
            "family": "Jones",
            "given": [
              "James"
            ]
          }
        ],
        "gender": "male",
        "birthDate": "1980-5-5",
        "address": [
          {
            "use": "home",
            "line": [
              "104 Main St"
            ],
            "city": "Anytown",
            "state": "CA",
            "postalCode": "94345",
            "country": "USA"
          }
        ],
        "telecom": [
          {
            "system": "phone",
            "value": "555-104-4571",
            "use": "home"
          },
          {
            "system": "email",
            "value": "james.jones@example.com"
          }
        ]
      },
      "request": {
        "method": "PUT",
        "url": "Patient/patient-0510"
      }
    },
    {
      "resource": {
        "resourceType": "Practitioner",
        "id": "pract-3885",
        "active": true,
        "name": [
          {
            "use": "official",
            "family": "Johnson",
            "given": [
              "Robert"
            ],
            "prefix": [
              "Dr."
            ]
          }
        ],
        "gender": "male",
        "qualification": [
          {
            "code": {
              "coding": [
                {
                  "system": "http://terminology.hl7.org/CodeSystem/v2-0360",
                  "code": "MD",
                  "display": "Doctor of Medicine"
                }
              ]
            }
          }
        ],
        "specialty": [
          {
            "coding": [
              {
                "system": "http://snomed.info/sct",
                "code": "cardio",
                "display": "Cardiology"
              }
            ]
          }
        ]
      },
      "request": {
        "method": "PUT",
        "url": "Practitioner/pract-3885"
      }
    },
    {
      "resource": {
        "resourceType": "Practitioner",
        "id": "pract-9477",
        "active": true,
        "name": [
          {
            "use": "official",
            "family": "Smith",
            "given": [
              "Jennifer"
            ],
            "prefix": [
              "Dr."
            ]
          }
        ],
        "gender": "female",
        "qualification": [
          {
            "code": {
              "coding": [
                {
                  "system": "http://terminology.hl7.org/CodeSystem/v2-0360",
                  "code": "MD",
                  "display": "Doctor of Medicine"
                }
              ]
            }
          }
        ],
        "specialty": [
          {
            "coding": [
              {
                "system": "http://snomed.info/sct",
                "code": "neuro",
                "display": "Neurology"
              }
            ]
          }
        ]
      },
      "request": {
        "method": "PUT",
        "url": "Practitioner/pract-9477"
      }
    },
    {
      "resource": {
        "resourceType": "Practitioner",
        "id": "pract-7501",
        "active": true,
        "name": [
          {
            "use": "official",
            "family": "Davis",
            "given": [
              "Elizabeth"
            ],
            "prefix": [
              "Dr."
            ]
          }
        ],
        "gender": "female",
        "qualification": [
          {
            "code": {
              "coding": [
                {
                  "system": "http://terminology.hl7.org/CodeSystem/v2-0360",
                  "code": "MD",
                  "display": "Doctor of Medicine"
                }
              ]
            }
          }
        ],
        "specialty": [
          {
            "coding": [
              {
                "system": "http://snomed.info/sct",
                "code": "gp",
                "display": "General Practice"
              }
            ]
          }
        ]
      },
      "request": {
        "method": "PUT",
        "url": "Practitioner/pract-7501"
      }
    },
    {
      "resource": {
        "resourceType": "Location",
        "id": "loc-8817",
        "status": "active",
        "name": "MediCare Hospital",
        "description": "MediCare Hospital Location",
        "type": {
          "coding": [
            {
              "system": "http://terminology.hl7.org/CodeSystem/v3-RoleCode",
              "code": "HOSP",
              "display": "Hospital"
            }
          ]
        },
        "telecom": [
          {
            "system": "phone",
            "value": "555-200-1000",
            "use": "work"
          }
        ],
        "address": {
          "line": [
            "200 Medical Center Blvd"
          ],
          "city": "Anytown",
          "state": "CA",
          "postalCode": "90345",
          "country": "USA"
        }
      },
      "request": {
        "method": "PUT",
        "url": "Location/loc-8817"
      }
    },
    {
      "resource": {
        "resourceType": "Location",
        "id": "loc-8709",
        "status": "active",
        "name": "MediCare Clinic",
        "description": "MediCare Clinic Location",
        "type": {
          "coding": [
            {
              "system": "http://terminology.hl7.org/CodeSystem/v3-RoleCode",
              "code": "CLINIC",
              "display": "Clinic"
            }
          ]
        },
        "telecom": [
          {
            "system": "phone",
            "value": "555-201-1001",
            "use": "work"
          }
        ],
        "address": {
          "line": [
            "300 Medical Center Blvd"
          ],
          "city": "Anytown",
          "state": "CA",
          "postalCode": "91345",
          "country": "USA"
        }
      },
      "request": {
        "method": "PUT",
        "url": "Location/loc-8709"
      }
    },
    {
      "resource": {
        "resourceType": "Observation",
        "id": "obs-2875",
        "status": "final",
        "category": [
          {
            "coding": [
              {
                "system": "http://terminology.hl7.org/CodeSystem/observation-category",
                "code": "vital-signs",
                "display": "Vital Signs"
              }
            ]
          }
        ],
        "code": {
          "coding": [
            {
              "system": "http://loinc.org",
              "code": "8867-4",
              "display": "Heart rate"
            }
          ]
        },
        "subject": {
          "reference": "Patient/patient-8699",
          "display": "Sarah Smith"
        },
        "effectiveDateTime": "2025-05-06T18:23:22.549Z",
        "valueQuantity": {
          "value": 94,
          "unit": "beats/minute",
          "system": "http://unitsofmeasure.org",
          "code": "/min"
        }
      },
      "request": {
        "method": "PUT",
        "url": "Observation/obs-2875"
      }
    },
    {
      "resource": {
        "resourceType": "Observation",
        "id": "obs-4144",
        "status": "final",
        "category": [
          {
            "coding": [
              {
                "system": "http://terminology.hl7.org/CodeSystem/observation-category",
                "code": "vital-signs",
                "display": "Vital Signs"
              }
            ]
          }
        ],
        "code": {
          "coding": [
            {
              "system": "http://loinc.org",
              "code": "8867-4",
              "display": "Heart rate"
            }
          ]
        },
        "subject": {
          "reference": "Patient/patient-8699",
          "display": "Sarah Smith"
        },
        "effectiveDateTime": "2025-06-06T18:23:22.550Z",
        "valueQuantity": {
          "value": 83,
          "unit": "beats/minute",
          "system": "http://unitsofmeasure.org",
          "code": "/min"
        }
      },
      "request": {
        "method": "PUT",
        "url": "Observation/obs-4144"
      }
    },
    {
      "resource": {
        "resourceType": "Observation",
        "id": "obs-6707",
        "status": "final",
        "category": [
          {
            "coding": [
              {
                "system": "http://terminology.hl7.org/CodeSystem/observation-category",
                "code": "vital-signs",
                "display": "Vital Signs"
              }
            ]
          }
        ],
        "code": {
          "coding": [
            {
              "system": "http://loinc.org",
              "code": "8867-4",
              "display": "Heart rate"
            }
          ]
        },
        "subject": {
          "reference": "Patient/patient-8699",
          "display": "Sarah Smith"
        },
        "effectiveDateTime": "2025-05-17T18:23:22.550Z",
        "valueQuantity": {
          "value": 98,
          "unit": "beats/minute",
          "system": "http://unitsofmeasure.org",
          "code": "/min"
        }
      },
      "request": {
        "method": "PUT",
        "url": "Observation/obs-6707"
      }
    },
    {
      "resource": {
        "resourceType": "Observation",
        "id": "obs-1940",
        "status": "final",
        "category": [
          {
            "coding": [
              {
                "system": "http://terminology.hl7.org/CodeSystem/observation-category",
                "code": "vital-signs",
                "display": "Vital Signs"
              }
            ]
          }
        ],
        "code": {
          "coding": [
            {
              "system": "http://loinc.org",
              "code": "8867-4",
              "display": "Heart rate"
            }
          ]
        },
        "subject": {
          "reference": "Patient/patient-8699",
          "display": "Sarah Smith"
        },
        "effectiveDateTime": "2025-04-23T19:23:22.550Z",
        "valueQuantity": {
          "value": 70,
          "unit": "beats/minute",
          "system": "http://unitsofmeasure.org",
          "code": "/min"
        }
      },
      "request": {
        "method": "PUT",
        "url": "Observation/obs-1940"
      }
    },
    {
      "resource": {
        "resourceType": "Observation",
        "id": "obs-1050",
        "status": "final",
        "category": [
          {
            "coding": [
              {
                "system": "http://terminology.hl7.org/CodeSystem/observation-category",
                "code": "vital-signs",
                "display": "Vital Signs"
              }
            ]
          }
        ],
        "code": {
          "coding": [
            {
              "system": "http://loinc.org",
              "code": "8867-4",
              "display": "Heart rate"
            }
          ]
        },
        "subject": {
          "reference": "Patient/patient-8699",
          "display": "Sarah Smith"
        },
        "effectiveDateTime": "2025-05-24T18:23:22.550Z",
        "valueQuantity": {
          "value": 70,
          "unit": "beats/minute",
          "system": "http://unitsofmeasure.org",
          "code": "/min"
        }
      },
      "request": {
        "method": "PUT",
        "url": "Observation/obs-1050"
      }
    },
    {
      "resource": {
        "resourceType": "Observation",
        "id": "obs-1431",
        "status": "final",
        "category": [
          {
            "coding": [
              {
                "system": "http://terminology.hl7.org/CodeSystem/observation-category",
                "code": "vital-signs",
                "display": "Vital Signs"
              }
            ]
          }
        ],
        "code": {
          "coding": [
            {
              "system": "http://loinc.org",
              "code": "8480-6",
              "display": "Systolic blood pressure"
            }
          ]
        },
        "subject": {
          "reference": "Patient/patient-8699",
          "display": "Sarah Smith"
        },
        "effectiveDateTime": "2025-06-18T18:23:22.550Z",
        "valueQuantity": {
          "value": 108,
          "unit": "mmHg",
          "system": "http://unitsofmeasure.org",
          "code": "mm[Hg]"
        }
      },
      "request": {
        "method": "PUT",
        "url": "Observation/obs-1431"
      }
    },
    {
      "resource": {
        "resourceType": "Observation",
        "id": "obs-1007",
        "status": "final",
        "category": [
          {
            "coding": [
              {
                "system": "http://terminology.hl7.org/CodeSystem/observation-category",
                "code": "vital-signs",
                "display": "Vital Signs"
              }
            ]
          }
        ],
        "code": {
          "coding": [
            {
              "system": "http://loinc.org",
              "code": "8480-6",
              "display": "Systolic blood pressure"
            }
          ]
        },
        "subject": {
          "reference": "Patient/patient-8699",
          "display": "Sarah Smith"
        },
        "effectiveDateTime": "2025-04-13T19:23:22.550Z",
        "valueQuantity": {
          "value": 114,
          "unit": "mmHg",
          "system": "http://unitsofmeasure.org",
          "code": "mm[Hg]"
        }
      },
      "request": {
        "method": "PUT",
        "url": "Observation/obs-1007"
      }
    },
    {
      "resource": {
        "resourceType": "Observation",
        "id": "obs-5278",
        "status": "final",
        "category": [
          {
            "coding": [
              {
                "system": "http://terminology.hl7.org/CodeSystem/observation-category",
                "code": "vital-signs",
                "display": "Vital Signs"
              }
            ]
          }
        ],
        "code": {
          "coding": [
            {
              "system": "http://loinc.org",
              "code": "8480-6",
              "display": "Systolic blood pressure"
            }
          ]
        },
        "subject": {
          "reference": "Patient/patient-8699",
          "display": "Sarah Smith"
        },
        "effectiveDateTime": "2025-06-29T18:23:22.550Z",
        "valueQuantity": {
          "value": 129,
          "unit": "mmHg",
          "system": "http://unitsofmeasure.org",
          "code": "mm[Hg]"
        }
      },
      "request": {
        "method": "PUT",
        "url": "Observation/obs-5278"
      }
    },
    {
      "resource": {
        "resourceType": "Observation",
        "id": "obs-6071",
        "status": "final",
        "category": [
          {
            "coding": [
              {
                "system": "http://terminology.hl7.org/CodeSystem/observation-category",
                "code": "vital-signs",
                "display": "Vital Signs"
              }
            ]
          }
        ],
        "code": {
          "coding": [
            {
              "system": "http://loinc.org",
              "code": "8480-6",
              "display": "Systolic blood pressure"
            }
          ]
        },
        "subject": {
          "reference": "Patient/patient-8699",
          "display": "Sarah Smith"
        },
        "effectiveDateTime": "2025-05-07T18:23:22.550Z",
        "valueQuantity": {
          "value": 106,
          "unit": "mmHg",
          "system": "http://unitsofmeasure.org",
          "code": "mm[Hg]"
        }
      },
      "request": {
        "method": "PUT",
        "url": "Observation/obs-6071"
      }
    },
    {
      "resource": {
        "resourceType": "Observation",
        "id": "obs-1278",
        "status": "final",
        "category": [
          {
            "coding": [
              {
                "system": "http://terminology.hl7.org/CodeSystem/observation-category",
                "code": "vital-signs",
                "display": "Vital Signs"
              }
            ]
          }
        ],
        "code": {
          "coding": [
            {
              "system": "http://loinc.org",
              "code": "8480-6",
              "display": "Systolic blood pressure"
            }
          ]
        },
        "subject": {
          "reference": "Patient/patient-8699",
          "display": "Sarah Smith"
        },
        "effectiveDateTime": "2025-04-29T18:23:22.550Z",
        "valueQuantity": {
          "value": 122,
          "unit": "mmHg",
          "system": "http://unitsofmeasure.org",
          "code": "mm[Hg]"
        }
      },
      "request": {
        "method": "PUT",
        "url": "Observation/obs-1278"
      }
    },
    {
      "resource": {
        "resourceType": "Observation",
        "id": "obs-2424",
        "status": "final",
        "category": [
          {
            "coding": [
              {
                "system": "http://terminology.hl7.org/CodeSystem/observation-category",
                "code": "laboratory",
                "display": "Laboratory"
              }
            ]
          }
        ],
        "code": {
          "coding": [
            {
              "system": "http://loinc.org",
              "code": "2339-0",
              "display": "Glucose"
            }
          ]
        },
        "subject": {
          "reference": "Patient/patient-8699",
          "display": "Sarah Smith"
        },
        "effectiveDateTime": "2025-06-07T18:23:22.550Z",
        "valueQuantity": {
          "value": 100,
          "unit": "mg/dL",
          "system": "http://unitsofmeasure.org",
          "code": "mg/dL"
        }
      },
      "request": {
        "method": "PUT",
        "url": "Observation/obs-2424"
      }
    },
    {
      "resource": {
        "resourceType": "Observation",
        "id": "obs-5105",
        "status": "final",
        "category": [
          {
            "coding": [
              {
                "system": "http://terminology.hl7.org/CodeSystem/observation-category",
                "code": "laboratory",
                "display": "Laboratory"
              }
            ]
          }
        ],
        "code": {
          "coding": [
            {
              "system": "http://loinc.org",
              "code": "2339-0",
              "display": "Glucose"
            }
          ]
        },
        "subject": {
          "reference": "Patient/patient-8699",
          "display": "Sarah Smith"
        },
        "effectiveDateTime": "2025-04-25T18:23:22.550Z",
        "valueQuantity": {
          "value": 111,
          "unit": "mg/dL",
          "system": "http://unitsofmeasure.org",
          "code": "mg/dL"
        }
      },
      "request": {
        "method": "PUT",
        "url": "Observation/obs-5105"
      }
    },
    {
      "resource": {
        "resourceType": "Observation",
        "id": "obs-2566",
        "status": "final",
        "category": [
          {
            "coding": [
              {
                "system": "http://terminology.hl7.org/CodeSystem/observation-category",
                "code": "laboratory",
                "display": "Laboratory"
              }
            ]
          }
        ],
        "code": {
          "coding": [
            {
              "system": "http://loinc.org",
              "code": "2339-0",
              "display": "Glucose"
            }
          ]
        },
        "subject": {
          "reference": "Patient/patient-8699",
          "display": "Sarah Smith"
        },
        "effectiveDateTime": "2025-04-24T19:23:22.550Z",
        "valueQuantity": {
          "value": 82,
          "unit": "mg/dL",
          "system": "http://unitsofmeasure.org",
          "code": "mg/dL"
        }
      },
      "request": {
        "method": "PUT",
        "url": "Observation/obs-2566"
      }
    },
    {
      "resource": {
        "resourceType": "Observation",
        "id": "obs-3600",
        "status": "final",
        "category": [
          {
            "coding": [
              {
                "system": "http://terminology.hl7.org/CodeSystem/observation-category",
                "code": "laboratory",
                "display": "Laboratory"
              }
            ]
          }
        ],
        "code": {
          "coding": [
            {
              "system": "http://loinc.org",
              "code": "2339-0",
              "display": "Glucose"
            }
          ]
        },
        "subject": {
          "reference": "Patient/patient-8699",
          "display": "Sarah Smith"
        },
        "effectiveDateTime": "2025-05-28T18:23:22.550Z",
        "valueQuantity": {
          "value": 116,
          "unit": "mg/dL",
          "system": "http://unitsofmeasure.org",
          "code": "mg/dL"
        }
      },
      "request": {
        "method": "PUT",
        "url": "Observation/obs-3600"
      }
    },
    {
      "resource": {
        "resourceType": "Observation",
        "id": "obs-8372",
        "status": "final",
        "category": [
          {
            "coding": [
              {
                "system": "http://terminology.hl7.org/CodeSystem/observation-category",
                "code": "laboratory",
                "display": "Laboratory"
              }
            ]
          }
        ],
        "code": {
          "coding": [
            {
              "system": "http://loinc.org",
              "code": "2339-0",
              "display": "Glucose"
            }
          ]
        },
        "subject": {
          "reference": "Patient/patient-8699",
          "display": "Sarah Smith"
        },
        "effectiveDateTime": "2025-04-28T18:23:22.550Z",
        "valueQuantity": {
          "value": 116,
          "unit": "mg/dL",
          "system": "http://unitsofmeasure.org",
          "code": "mg/dL"
        }
      },
      "request": {
        "method": "PUT",
        "url": "Observation/obs-8372"
      }
    },
    {
      "resource": {
        "resourceType": "Observation",
        "id": "obs-2407",
        "status": "final",
        "category": [
          {
            "coding": [
              {
                "system": "http://terminology.hl7.org/CodeSystem/observation-category",
                "code": "laboratory",
                "display": "Laboratory"
              }
            ]
          }
        ],
        "code": {
          "coding": [
            {
              "system": "http://loinc.org",
              "code": "2160-0",
              "display": "Creatinine"
            }
          ]
        },
        "subject": {
          "reference": "Patient/patient-8699",
          "display": "Sarah Smith"
        },
        "effectiveDateTime": "2025-04-09T19:23:22.550Z",
        "valueQuantity": {
          "value": 0.7,
          "unit": "mg/dL",
          "system": "http://unitsofmeasure.org",
          "code": "mg/dL"
        }
      },
      "request": {
        "method": "PUT",
        "url": "Observation/obs-2407"
      }
    },
    {
      "resource": {
        "resourceType": "Observation",
        "id": "obs-6135",
        "status": "final",
        "category": [
          {
            "coding": [
              {
                "system": "http://terminology.hl7.org/CodeSystem/observation-category",
                "code": "laboratory",
                "display": "Laboratory"
              }
            ]
          }
        ],
        "code": {
          "coding": [
            {
              "system": "http://loinc.org",
              "code": "2160-0",
              "display": "Creatinine"
            }
          ]
        },
        "subject": {
          "reference": "Patient/patient-8699",
          "display": "Sarah Smith"
        },
        "effectiveDateTime": "2025-05-25T18:23:22.550Z",
        "valueQuantity": {
          "value": 0.9,
          "unit": "mg/dL",
          "system": "http://unitsofmeasure.org",
          "code": "mg/dL"
        }
      },
      "request": {
        "method": "PUT",
        "url": "Observation/obs-6135"
      }
    },
    {
      "resource": {
        "resourceType": "Observation",
        "id": "obs-4486",
        "status": "final",
        "category": [
          {
            "coding": [
              {
                "system": "http://terminology.hl7.org/CodeSystem/observation-category",
                "code": "laboratory",
                "display": "Laboratory"
              }
            ]
          }
        ],
        "code": {
          "coding": [
            {
              "system": "http://loinc.org",
              "code": "2160-0",
              "display": "Creatinine"
            }
          ]
        },
        "subject": {
          "reference": "Patient/patient-8699",
          "display": "Sarah Smith"
        },
        "effectiveDateTime": "2025-05-11T18:23:22.550Z",
        "valueQuantity": {
          "value": 1.2,
          "unit": "mg/dL",
          "system": "http://unitsofmeasure.org",
          "code": "mg/dL"
        }
      },
      "request": {
        "method": "PUT",
        "url": "Observation/obs-4486"
      }
    },
    {
      "resource": {
        "resourceType": "Observation",
        "id": "obs-7895",
        "status": "final",
        "category": [
          {
            "coding": [
              {
                "system": "http://terminology.hl7.org/CodeSystem/observation-category",
                "code": "laboratory",
                "display": "Laboratory"
              }
            ]
          }
        ],
        "code": {
          "coding": [
            {
              "system": "http://loinc.org",
              "code": "2160-0",
              "display": "Creatinine"
            }
          ]
        },
        "subject": {
          "reference": "Patient/patient-8699",
          "display": "Sarah Smith"
        },
        "effectiveDateTime": "2025-06-21T18:23:22.550Z",
        "valueQuantity": {
          "value": 0.6,
          "unit": "mg/dL",
          "system": "http://unitsofmeasure.org",
          "code": "mg/dL"
        }
      },
      "request": {
        "method": "PUT",
        "url": "Observation/obs-7895"
      }
    },
    {
      "resource": {
        "resourceType": "Observation",
        "id": "obs-4925",
        "status": "final",
        "category": [
          {
            "coding": [
              {
                "system": "http://terminology.hl7.org/CodeSystem/observation-category",
                "code": "laboratory",
                "display": "Laboratory"
              }
            ]
          }
        ],
        "code": {
          "coding": [
            {
              "system": "http://loinc.org",
              "code": "2160-0",
              "display": "Creatinine"
            }
          ]
        },
        "subject": {
          "reference": "Patient/patient-8699",
          "display": "Sarah Smith"
        },
        "effectiveDateTime": "2025-06-18T18:23:22.550Z",
        "valueQuantity": {
          "value": 1,
          "unit": "mg/dL",
          "system": "http://unitsofmeasure.org",
          "code": "mg/dL"
        }
      },
      "request": {
        "method": "PUT",
        "url": "Observation/obs-4925"
      }
    },
    {
      "resource": {
        "resourceType": "Observation",
        "id": "obs-6153",
        "status": "final",
        "category": [
          {
            "coding": [
              {
                "system": "http://terminology.hl7.org/CodeSystem/observation-category",
                "code": "vital-signs",
                "display": "Vital Signs"
              }
            ]
          }
        ],
        "code": {
          "coding": [
            {
              "system": "http://loinc.org",
              "code": "8867-4",
              "display": "Heart rate"
            }
          ]
        },
        "subject": {
          "reference": "Patient/patient-9288",
          "display": "Michael Johnson"
        },
        "effectiveDateTime": "2025-05-19T18:23:22.550Z",
        "valueQuantity": {
          "value": 62,
          "unit": "beats/minute",
          "system": "http://unitsofmeasure.org",
          "code": "/min"
        }
      },
      "request": {
        "method": "PUT",
        "url": "Observation/obs-6153"
      }
    },
    {
      "resource": {
        "resourceType": "Observation",
        "id": "obs-6861",
        "status": "final",
        "category": [
          {
            "coding": [
              {
                "system": "http://terminology.hl7.org/CodeSystem/observation-category",
                "code": "vital-signs",
                "display": "Vital Signs"
              }
            ]
          }
        ],
        "code": {
          "coding": [
            {
              "system": "http://loinc.org",
              "code": "8867-4",
              "display": "Heart rate"
            }
          ]
        },
        "subject": {
          "reference": "Patient/patient-9288",
          "display": "Michael Johnson"
        },
        "effectiveDateTime": "2025-04-09T19:23:22.550Z",
        "valueQuantity": {
          "value": 67,
          "unit": "beats/minute",
          "system": "http://unitsofmeasure.org",
          "code": "/min"
        }
      },
      "request": {
        "method": "PUT",
        "url": "Observation/obs-6861"
      }
    },
    {
      "resource": {
        "resourceType": "Observation",
        "id": "obs-6110",
        "status": "final",
        "category": [
          {
            "coding": [
              {
                "system": "http://terminology.hl7.org/CodeSystem/observation-category",
                "code": "vital-signs",
                "display": "Vital Signs"
              }
            ]
          }
        ],
        "code": {
          "coding": [
            {
              "system": "http://loinc.org",
              "code": "8867-4",
              "display": "Heart rate"
            }
          ]
        },
        "subject": {
          "reference": "Patient/patient-9288",
          "display": "Michael Johnson"
        },
        "effectiveDateTime": "2025-04-26T18:23:22.550Z",
        "valueQuantity": {
          "value": 74,
          "unit": "beats/minute",
          "system": "http://unitsofmeasure.org",
          "code": "/min"
        }
      },
      "request": {
        "method": "PUT",
        "url": "Observation/obs-6110"
      }
    },
    {
      "resource": {
        "resourceType": "Observation",
        "id": "obs-3719",
        "status": "final",
        "category": [
          {
            "coding": [
              {
                "system": "http://terminology.hl7.org/CodeSystem/observation-category",
                "code": "vital-signs",
                "display": "Vital Signs"
              }
            ]
          }
        ],
        "code": {
          "coding": [
            {
              "system": "http://loinc.org",
              "code": "8867-4",
              "display": "Heart rate"
            }
          ]
        },
        "subject": {
          "reference": "Patient/patient-9288",
          "display": "Michael Johnson"
        },
        "effectiveDateTime": "2025-04-15T19:23:22.550Z",
        "valueQuantity": {
          "value": 83,
          "unit": "beats/minute",
          "system": "http://unitsofmeasure.org",
          "code": "/min"
        }
      },
      "request": {
        "method": "PUT",
        "url": "Observation/obs-3719"
      }
    },
    {
      "resource": {
        "resourceType": "Observation",
        "id": "obs-1793",
        "status": "final",
        "category": [
          {
            "coding": [
              {
                "system": "http://terminology.hl7.org/CodeSystem/observation-category",
                "code": "vital-signs",
                "display": "Vital Signs"
              }
            ]
          }
        ],
        "code": {
          "coding": [
            {
              "system": "http://loinc.org",
              "code": "8867-4",
              "display": "Heart rate"
            }
          ]
        },
        "subject": {
          "reference": "Patient/patient-9288",
          "display": "Michael Johnson"
        },
        "effectiveDateTime": "2025-04-12T19:23:22.550Z",
        "valueQuantity": {
          "value": 74,
          "unit": "beats/minute",
          "system": "http://unitsofmeasure.org",
          "code": "/min"
        }
      },
      "request": {
        "method": "PUT",
        "url": "Observation/obs-1793"
      }
    },
    {
      "resource": {
        "resourceType": "Observation",
        "id": "obs-0817",
        "status": "final",
        "category": [
          {
            "coding": [
              {
                "system": "http://terminology.hl7.org/CodeSystem/observation-category",
                "code": "vital-signs",
                "display": "Vital Signs"
              }
            ]
          }
        ],
        "code": {
          "coding": [
            {
              "system": "http://loinc.org",
              "code": "8480-6",
              "display": "Systolic blood pressure"
            }
          ]
        },
        "subject": {
          "reference": "Patient/patient-9288",
          "display": "Michael Johnson"
        },
        "effectiveDateTime": "2025-06-20T18:23:22.550Z",
        "valueQuantity": {
          "value": 119,
          "unit": "mmHg",
          "system": "http://unitsofmeasure.org",
          "code": "mm[Hg]"
        }
      },
      "request": {
        "method": "PUT",
        "url": "Observation/obs-0817"
      }
    },
    {
      "resource": {
        "resourceType": "Observation",
        "id": "obs-1774",
        "status": "final",
        "category": [
          {
            "coding": [
              {
                "system": "http://terminology.hl7.org/CodeSystem/observation-category",
                "code": "vital-signs",
                "display": "Vital Signs"
              }
            ]
          }
        ],
        "code": {
          "coding": [
            {
              "system": "http://loinc.org",
              "code": "8480-6",
              "display": "Systolic blood pressure"
            }
          ]
        },
        "subject": {
          "reference": "Patient/patient-9288",
          "display": "Michael Johnson"
        },
        "effectiveDateTime": "2025-06-11T18:23:22.550Z",
        "valueQuantity": {
          "value": 130,
          "unit": "mmHg",
          "system": "http://unitsofmeasure.org",
          "code": "mm[Hg]"
        }
      },
      "request": {
        "method": "PUT",
        "url": "Observation/obs-1774"
      }
    },
    {
      "resource": {
        "resourceType": "Observation",
        "id": "obs-2201",
        "status": "final",
        "category": [
          {
            "coding": [
              {
                "system": "http://terminology.hl7.org/CodeSystem/observation-category",
                "code": "vital-signs",
                "display": "Vital Signs"
              }
            ]
          }
        ],
        "code": {
          "coding": [
            {
              "system": "http://loinc.org",
              "code": "8480-6",
              "display": "Systolic blood pressure"
            }
          ]
        },
        "subject": {
          "reference": "Patient/patient-9288",
          "display": "Michael Johnson"
        },
        "effectiveDateTime": "2025-05-19T18:23:22.550Z",
        "valueQuantity": {
          "value": 138,
          "unit": "mmHg",
          "system": "http://unitsofmeasure.org",
          "code": "mm[Hg]"
        }
      },
      "request": {
        "method": "PUT",
        "url": "Observation/obs-2201"
      }
    },
    {
      "resource": {
        "resourceType": "Observation",
        "id": "obs-4770",
        "status": "final",
        "category": [
          {
            "coding": [
              {
                "system": "http://terminology.hl7.org/CodeSystem/observation-category",
                "code": "vital-signs",
                "display": "Vital Signs"
              }
            ]
          }
        ],
        "code": {
          "coding": [
            {
              "system": "http://loinc.org",
              "code": "8480-6",
              "display": "Systolic blood pressure"
            }
          ]
        },
        "subject": {
          "reference": "Patient/patient-9288",
          "display": "Michael Johnson"
        },
        "effectiveDateTime": "2025-04-12T19:23:22.550Z",
        "valueQuantity": {
          "value": 120,
          "unit": "mmHg",
          "system": "http://unitsofmeasure.org",
          "code": "mm[Hg]"
        }
      },
      "request": {
        "method": "PUT",
        "url": "Observation/obs-4770"
      }
    },
    {
      "resource": {
        "resourceType": "Observation",
        "id": "obs-6047",
        "status": "final",
        "category": [
          {
            "coding": [
              {
                "system": "http://terminology.hl7.org/CodeSystem/observation-category",
                "code": "vital-signs",
                "display": "Vital Signs"
              }
            ]
          }
        ],
        "code": {
          "coding": [
            {
              "system": "http://loinc.org",
              "code": "8480-6",
              "display": "Systolic blood pressure"
            }
          ]
        },
        "subject": {
          "reference": "Patient/patient-9288",
          "display": "Michael Johnson"
        },
        "effectiveDateTime": "2025-05-21T18:23:22.550Z",
        "valueQuantity": {
          "value": 117,
          "unit": "mmHg",
          "system": "http://unitsofmeasure.org",
          "code": "mm[Hg]"
        }
      },
      "request": {
        "method": "PUT",
        "url": "Observation/obs-6047"
      }
    },
    {
      "resource": {
        "resourceType": "Observation",
        "id": "obs-6298",
        "status": "final",
        "category": [
          {
            "coding": [
              {
                "system": "http://terminology.hl7.org/CodeSystem/observation-category",
                "code": "laboratory",
                "display": "Laboratory"
              }
            ]
          }
        ],
        "code": {
          "coding": [
            {
              "system": "http://loinc.org",
              "code": "2339-0",
              "display": "Glucose"
            }
          ]
        },
        "subject": {
          "reference": "Patient/patient-9288",
          "display": "Michael Johnson"
        },
        "effectiveDateTime": "2025-06-22T18:23:22.550Z",
        "valueQuantity": {
          "value": 113,
          "unit": "mg/dL",
          "system": "http://unitsofmeasure.org",
          "code": "mg/dL"
        }
      },
      "request": {
        "method": "PUT",
        "url": "Observation/obs-6298"
      }
    },
    {
      "resource": {
        "resourceType": "Observation",
        "id": "obs-9553",
        "status": "final",
        "category": [
          {
            "coding": [
              {
                "system": "http://terminology.hl7.org/CodeSystem/observation-category",
                "code": "laboratory",
                "display": "Laboratory"
              }
            ]
          }
        ],
        "code": {
          "coding": [
            {
              "system": "http://loinc.org",
              "code": "2339-0",
              "display": "Glucose"
            }
          ]
        },
        "subject": {
          "reference": "Patient/patient-9288",
          "display": "Michael Johnson"
        },
        "effectiveDateTime": "2025-04-08T19:23:22.550Z",
        "valueQuantity": {
          "value": 119,
          "unit": "mg/dL",
          "system": "http://unitsofmeasure.org",
          "code": "mg/dL"
        }
      },
      "request": {
        "method": "PUT",
        "url": "Observation/obs-9553"
      }
    },
    {
      "resource": {
        "resourceType": "Observation",
        "id": "obs-3186",
        "status": "final",
        "category": [
          {
            "coding": [
              {
                "system": "http://terminology.hl7.org/CodeSystem/observation-category",
                "code": "laboratory",
                "display": "Laboratory"
              }
            ]
          }
        ],
        "code": {
          "coding": [
            {
              "system": "http://loinc.org",
              "code": "2339-0",
              "display": "Glucose"
            }
          ]
        },
        "subject": {
          "reference": "Patient/patient-9288",
          "display": "Michael Johnson"
        },
        "effectiveDateTime": "2025-05-25T18:23:22.550Z",
        "valueQuantity": {
          "value": 93,
          "unit": "mg/dL",
          "system": "http://unitsofmeasure.org",
          "code": "mg/dL"
        }
      },
      "request": {
        "method": "PUT",
        "url": "Observation/obs-3186"
      }
    },
    {
      "resource": {
        "resourceType": "Observation",
        "id": "obs-7947",
        "status": "final",
        "category": [
          {
            "coding": [
              {
                "system": "http://terminology.hl7.org/CodeSystem/observation-category",
                "code": "laboratory",
                "display": "Laboratory"
              }
            ]
          }
        ],
        "code": {
          "coding": [
            {
              "system": "http://loinc.org",
              "code": "2339-0",
              "display": "Glucose"
            }
          ]
        },
        "subject": {
          "reference": "Patient/patient-9288",
          "display": "Michael Johnson"
        },
        "effectiveDateTime": "2025-05-04T18:23:22.550Z",
        "valueQuantity": {
          "value": 117,
          "unit": "mg/dL",
          "system": "http://unitsofmeasure.org",
          "code": "mg/dL"
        }
      },
      "request": {
        "method": "PUT",
        "url": "Observation/obs-7947"
      }
    },
    {
      "resource": {
        "resourceType": "Observation",
        "id": "obs-1077",
        "status": "final",
        "category": [
          {
            "coding": [
              {
                "system": "http://terminology.hl7.org/CodeSystem/observation-category",
                "code": "laboratory",
                "display": "Laboratory"
              }
            ]
          }
        ],
        "code": {
          "coding": [
            {
              "system": "http://loinc.org",
              "code": "2339-0",
              "display": "Glucose"
            }
          ]
        },
        "subject": {
          "reference": "Patient/patient-9288",
          "display": "Michael Johnson"
        },
        "effectiveDateTime": "2025-04-23T19:23:22.550Z",
        "valueQuantity": {
          "value": 83,
          "unit": "mg/dL",
          "system": "http://unitsofmeasure.org",
          "code": "mg/dL"
        }
      },
      "request": {
        "method": "PUT",
        "url": "Observation/obs-1077"
      }
    },
    {
      "resource": {
        "resourceType": "Observation",
        "id": "obs-2612",
        "status": "final",
        "category": [
          {
            "coding": [
              {
                "system": "http://terminology.hl7.org/CodeSystem/observation-category",
                "code": "laboratory",
                "display": "Laboratory"
              }
            ]
          }
        ],
        "code": {
          "coding": [
            {
              "system": "http://loinc.org",
              "code": "2160-0",
              "display": "Creatinine"
            }
          ]
        },
        "subject": {
          "reference": "Patient/patient-9288",
          "display": "Michael Johnson"
        },
        "effectiveDateTime": "2025-04-28T18:23:22.550Z",
        "valueQuantity": {
          "value": 1,
          "unit": "mg/dL",
          "system": "http://unitsofmeasure.org",
          "code": "mg/dL"
        }
      },
      "request": {
        "method": "PUT",
        "url": "Observation/obs-2612"
      }
    },
    {
      "resource": {
        "resourceType": "Observation",
        "id": "obs-1772",
        "status": "final",
        "category": [
          {
            "coding": [
              {
                "system": "http://terminology.hl7.org/CodeSystem/observation-category",
                "code": "laboratory",
                "display": "Laboratory"
              }
            ]
          }
        ],
        "code": {
          "coding": [
            {
              "system": "http://loinc.org",
              "code": "2160-0",
              "display": "Creatinine"
            }
          ]
        },
        "subject": {
          "reference": "Patient/patient-9288",
          "display": "Michael Johnson"
        },
        "effectiveDateTime": "2025-04-23T19:23:22.550Z",
        "valueQuantity": {
          "value": 0.6,
          "unit": "mg/dL",
          "system": "http://unitsofmeasure.org",
          "code": "mg/dL"
        }
      },
      "request": {
        "method": "PUT",
        "url": "Observation/obs-1772"
      }
    },
    {
      "resource": {
        "resourceType": "Observation",
        "id": "obs-2600",
        "status": "final",
        "category": [
          {
            "coding": [
              {
                "system": "http://terminology.hl7.org/CodeSystem/observation-category",
                "code": "laboratory",
                "display": "Laboratory"
              }
            ]
          }
        ],
        "code": {
          "coding": [
            {
              "system": "http://loinc.org",
              "code": "2160-0",
              "display": "Creatinine"
            }
          ]
        },
        "subject": {
          "reference": "Patient/patient-9288",
          "display": "Michael Johnson"
        },
        "effectiveDateTime": "2025-05-25T18:23:22.550Z",
        "valueQuantity": {
          "value": 1.1,
          "unit": "mg/dL",
          "system": "http://unitsofmeasure.org",
          "code": "mg/dL"
        }
      },
      "request": {
        "method": "PUT",
        "url": "Observation/obs-2600"
      }
    },
    {
      "resource": {
        "resourceType": "Observation",
        "id": "obs-7913",
        "status": "final",
        "category": [
          {
            "coding": [
              {
                "system": "http://terminology.hl7.org/CodeSystem/observation-category",
                "code": "laboratory",
                "display": "Laboratory"
              }
            ]
          }
        ],
        "code": {
          "coding": [
            {
              "system": "http://loinc.org",
              "code": "2160-0",
              "display": "Creatinine"
            }
          ]
        },
        "subject": {
          "reference": "Patient/patient-9288",
          "display": "Michael Johnson"
        },
        "effectiveDateTime": "2025-05-27T18:23:22.550Z",
        "valueQuantity": {
          "value": 0.9,
          "unit": "mg/dL",
          "system": "http://unitsofmeasure.org",
          "code": "mg/dL"
        }
      },
      "request": {
        "method": "PUT",
        "url": "Observation/obs-7913"
      }
    },
    {
      "resource": {
        "resourceType": "Observation",
        "id": "obs-0650",
        "status": "final",
        "category": [
          {
            "coding": [
              {
                "system": "http://terminology.hl7.org/CodeSystem/observation-category",
                "code": "laboratory",
                "display": "Laboratory"
              }
            ]
          }
        ],
        "code": {
          "coding": [
            {
              "system": "http://loinc.org",
              "code": "2160-0",
              "display": "Creatinine"
            }
          ]
        },
        "subject": {
          "reference": "Patient/patient-9288",
          "display": "Michael Johnson"
        },
        "effectiveDateTime": "2025-05-16T18:23:22.550Z",
        "valueQuantity": {
          "value": 1.2,
          "unit": "mg/dL",
          "system": "http://unitsofmeasure.org",
          "code": "mg/dL"
        }
      },
      "request": {
        "method": "PUT",
        "url": "Observation/obs-0650"
      }
    },
    {
      "resource": {
        "resourceType": "Observation",
        "id": "obs-0868",
        "status": "final",
        "category": [
          {
            "coding": [
              {
                "system": "http://terminology.hl7.org/CodeSystem/observation-category",
                "code": "vital-signs",
                "display": "Vital Signs"
              }
            ]
          }
        ],
        "code": {
          "coding": [
            {
              "system": "http://loinc.org",
              "code": "8867-4",
              "display": "Heart rate"
            }
          ]
        },
        "subject": {
          "reference": "Patient/patient-7568",
          "display": "Jessica Williams"
        },
        "effectiveDateTime": "2025-06-27T18:23:22.550Z",
        "valueQuantity": {
          "value": 70,
          "unit": "beats/minute",
          "system": "http://unitsofmeasure.org",
          "code": "/min"
        }
      },
      "request": {
        "method": "PUT",
        "url": "Observation/obs-0868"
      }
    },
    {
      "resource": {
        "resourceType": "Observation",
        "id": "obs-4594",
        "status": "final",
        "category": [
          {
            "coding": [
              {
                "system": "http://terminology.hl7.org/CodeSystem/observation-category",
                "code": "vital-signs",
                "display": "Vital Signs"
              }
            ]
          }
        ],
        "code": {
          "coding": [
            {
              "system": "http://loinc.org",
              "code": "8867-4",
              "display": "Heart rate"
            }
          ]
        },
        "subject": {
          "reference": "Patient/patient-7568",
          "display": "Jessica Williams"
        },
        "effectiveDateTime": "2025-04-10T19:23:22.550Z",
        "valueQuantity": {
          "value": 96,
          "unit": "beats/minute",
          "system": "http://unitsofmeasure.org",
          "code": "/min"
        }
      },
      "request": {
        "method": "PUT",
        "url": "Observation/obs-4594"
      }
    },
    {
      "resource": {
        "resourceType": "Observation",
        "id": "obs-2839",
        "status": "final",
        "category": [
          {
            "coding": [
              {
                "system": "http://terminology.hl7.org/CodeSystem/observation-category",
                "code": "vital-signs",
                "display": "Vital Signs"
              }
            ]
          }
        ],
        "code": {
          "coding": [
            {
              "system": "http://loinc.org",
              "code": "8867-4",
              "display": "Heart rate"
            }
          ]
        },
        "subject": {
          "reference": "Patient/patient-7568",
          "display": "Jessica Williams"
        },
        "effectiveDateTime": "2025-05-06T18:23:22.550Z",
        "valueQuantity": {
          "value": 97,
          "unit": "beats/minute",
          "system": "http://unitsofmeasure.org",
          "code": "/min"
        }
      },
      "request": {
        "method": "PUT",
        "url": "Observation/obs-2839"
      }
    },
    {
      "resource": {
        "resourceType": "Observation",
        "id": "obs-5084",
        "status": "final",
        "category": [
          {
            "coding": [
              {
                "system": "http://terminology.hl7.org/CodeSystem/observation-category",
                "code": "vital-signs",
                "display": "Vital Signs"
              }
            ]
          }
        ],
        "code": {
          "coding": [
            {
              "system": "http://loinc.org",
              "code": "8867-4",
              "display": "Heart rate"
            }
          ]
        },
        "subject": {
          "reference": "Patient/patient-7568",
          "display": "Jessica Williams"
        },
        "effectiveDateTime": "2025-05-03T18:23:22.550Z",
        "valueQuantity": {
          "value": 73,
          "unit": "beats/minute",
          "system": "http://unitsofmeasure.org",
          "code": "/min"
        }
      },
      "request": {
        "method": "PUT",
        "url": "Observation/obs-5084"
      }
    },
    {
      "resource": {
        "resourceType": "Observation",
        "id": "obs-2789",
        "status": "final",
        "category": [
          {
            "coding": [
              {
                "system": "http://terminology.hl7.org/CodeSystem/observation-category",
                "code": "vital-signs",
                "display": "Vital Signs"
              }
            ]
          }
        ],
        "code": {
          "coding": [
            {
              "system": "http://loinc.org",
              "code": "8867-4",
              "display": "Heart rate"
            }
          ]
        },
        "subject": {
          "reference": "Patient/patient-7568",
          "display": "Jessica Williams"
        },
        "effectiveDateTime": "2025-06-03T18:23:22.550Z",
        "valueQuantity": {
          "value": 68,
          "unit": "beats/minute",
          "system": "http://unitsofmeasure.org",
          "code": "/min"
        }
      },
      "request": {
        "method": "PUT",
        "url": "Observation/obs-2789"
      }
    },
    {
      "resource": {
        "resourceType": "Observation",
        "id": "obs-3964",
        "status": "final",
        "category": [
          {
            "coding": [
              {
                "system": "http://terminology.hl7.org/CodeSystem/observation-category",
                "code": "vital-signs",
                "display": "Vital Signs"
              }
            ]
          }
        ],
        "code": {
          "coding": [
            {
              "system": "http://loinc.org",
              "code": "8480-6",
              "display": "Systolic blood pressure"
            }
          ]
        },
        "subject": {
          "reference": "Patient/patient-7568",
          "display": "Jessica Williams"
        },
        "effectiveDateTime": "2025-05-10T18:23:22.550Z",
        "valueQuantity": {
          "value": 105,
          "unit": "mmHg",
          "system": "http://unitsofmeasure.org",
          "code": "mm[Hg]"
        }
      },
      "request": {
        "method": "PUT",
        "url": "Observation/obs-3964"
      }
    },
    {
      "resource": {
        "resourceType": "Observation",
        "id": "obs-8787",
        "status": "final",
        "category": [
          {
            "coding": [
              {
                "system": "http://terminology.hl7.org/CodeSystem/observation-category",
                "code": "vital-signs",
                "display": "Vital Signs"
              }
            ]
          }
        ],
        "code": {
          "coding": [
            {
              "system": "http://loinc.org",
              "code": "8480-6",
              "display": "Systolic blood pressure"
            }
          ]
        },
        "subject": {
          "reference": "Patient/patient-7568",
          "display": "Jessica Williams"
        },
        "effectiveDateTime": "2025-06-25T18:23:22.550Z",
        "valueQuantity": {
          "value": 113,
          "unit": "mmHg",
          "system": "http://unitsofmeasure.org",
          "code": "mm[Hg]"
        }
      },
      "request": {
        "method": "PUT",
        "url": "Observation/obs-8787"
      }
    },
    {
      "resource": {
        "resourceType": "Observation",
        "id": "obs-7855",
        "status": "final",
        "category": [
          {
            "coding": [
              {
                "system": "http://terminology.hl7.org/CodeSystem/observation-category",
                "code": "vital-signs",
                "display": "Vital Signs"
              }
            ]
          }
        ],
        "code": {
          "coding": [
            {
              "system": "http://loinc.org",
              "code": "8480-6",
              "display": "Systolic blood pressure"
            }
          ]
        },
        "subject": {
          "reference": "Patient/patient-7568",
          "display": "Jessica Williams"
        },
        "effectiveDateTime": "2025-06-07T18:23:22.550Z",
        "valueQuantity": {
          "value": 120,
          "unit": "mmHg",
          "system": "http://unitsofmeasure.org",
          "code": "mm[Hg]"
        }
      },
      "request": {
        "method": "PUT",
        "url": "Observation/obs-7855"
      }
    },
    {
      "resource": {
        "resourceType": "Observation",
        "id": "obs-2512",
        "status": "final",
        "category": [
          {
            "coding": [
              {
                "system": "http://terminology.hl7.org/CodeSystem/observation-category",
                "code": "vital-signs",
                "display": "Vital Signs"
              }
            ]
          }
        ],
        "code": {
          "coding": [
            {
              "system": "http://loinc.org",
              "code": "8480-6",
              "display": "Systolic blood pressure"
            }
          ]
        },
        "subject": {
          "reference": "Patient/patient-7568",
          "display": "Jessica Williams"
        },
        "effectiveDateTime": "2025-04-20T19:23:22.550Z",
        "valueQuantity": {
          "value": 107,
          "unit": "mmHg",
          "system": "http://unitsofmeasure.org",
          "code": "mm[Hg]"
        }
      },
      "request": {
        "method": "PUT",
        "url": "Observation/obs-2512"
      }
    },
    {
      "resource": {
        "resourceType": "Observation",
        "id": "obs-3618",
        "status": "final",
        "category": [
          {
            "coding": [
              {
                "system": "http://terminology.hl7.org/CodeSystem/observation-category",
                "code": "vital-signs",
                "display": "Vital Signs"
              }
            ]
          }
        ],
        "code": {
          "coding": [
            {
              "system": "http://loinc.org",
              "code": "8480-6",
              "display": "Systolic blood pressure"
            }
          ]
        },
        "subject": {
          "reference": "Patient/patient-7568",
          "display": "Jessica Williams"
        },
        "effectiveDateTime": "2025-05-12T18:23:22.550Z",
        "valueQuantity": {
          "value": 139,
          "unit": "mmHg",
          "system": "http://unitsofmeasure.org",
          "code": "mm[Hg]"
        }
      },
      "request": {
        "method": "PUT",
        "url": "Observation/obs-3618"
      }
    },
    {
      "resource": {
        "resourceType": "Observation",
        "id": "obs-2145",
        "status": "final",
        "category": [
          {
            "coding": [
              {
                "system": "http://terminology.hl7.org/CodeSystem/observation-category",
                "code": "laboratory",
                "display": "Laboratory"
              }
            ]
          }
        ],
        "code": {
          "coding": [
            {
              "system": "http://loinc.org",
              "code": "2339-0",
              "display": "Glucose"
            }
          ]
        },
        "subject": {
          "reference": "Patient/patient-7568",
          "display": "Jessica Williams"
        },
        "effectiveDateTime": "2025-06-27T18:23:22.550Z",
        "valueQuantity": {
          "value": 107,
          "unit": "mg/dL",
          "system": "http://unitsofmeasure.org",
          "code": "mg/dL"
        }
      },
      "request": {
        "method": "PUT",
        "url": "Observation/obs-2145"
      }
    },
    {
      "resource": {
        "resourceType": "Observation",
        "id": "obs-6721",
        "status": "final",
        "category": [
          {
            "coding": [
              {
                "system": "http://terminology.hl7.org/CodeSystem/observation-category",
                "code": "laboratory",
                "display": "Laboratory"
              }
            ]
          }
        ],
        "code": {
          "coding": [
            {
              "system": "http://loinc.org",
              "code": "2339-0",
              "display": "Glucose"
            }
          ]
        },
        "subject": {
          "reference": "Patient/patient-7568",
          "display": "Jessica Williams"
        },
        "effectiveDateTime": "2025-04-07T19:23:22.550Z",
        "valueQuantity": {
          "value": 73,
          "unit": "mg/dL",
          "system": "http://unitsofmeasure.org",
          "code": "mg/dL"
        }
      },
      "request": {
        "method": "PUT",
        "url": "Observation/obs-6721"
      }
    },
    {
      "resource": {
        "resourceType": "Observation",
        "id": "obs-0648",
        "status": "final",
        "category": [
          {
            "coding": [
              {
                "system": "http://terminology.hl7.org/CodeSystem/observation-category",
                "code": "laboratory",
                "display": "Laboratory"
              }
            ]
          }
        ],
        "code": {
          "coding": [
            {
              "system": "http://loinc.org",
              "code": "2339-0",
              "display": "Glucose"
            }
          ]
        },
        "subject": {
          "reference": "Patient/patient-7568",
          "display": "Jessica Williams"
        },
        "effectiveDateTime": "2025-06-07T18:23:22.550Z",
        "valueQuantity": {
          "value": 71,
          "unit": "mg/dL",
          "system": "http://unitsofmeasure.org",
          "code": "mg/dL"
        }
      },
      "request": {
        "method": "PUT",
        "url": "Observation/obs-0648"
      }
    },
    {
      "resource": {
        "resourceType": "Observation",
        "id": "obs-2094",
        "status": "final",
        "category": [
          {
            "coding": [
              {
                "system": "http://terminology.hl7.org/CodeSystem/observation-category",
                "code": "laboratory",
                "display": "Laboratory"
              }
            ]
          }
        ],
        "code": {
          "coding": [
            {
              "system": "http://loinc.org",
              "code": "2339-0",
              "display": "Glucose"
            }
          ]
        },
        "subject": {
          "reference": "Patient/patient-7568",
          "display": "Jessica Williams"
        },
        "effectiveDateTime": "2025-05-23T18:23:22.550Z",
        "valueQuantity": {
          "value": 103,
          "unit": "mg/dL",
          "system": "http://unitsofmeasure.org",
          "code": "mg/dL"
        }
      },
      "request": {
        "method": "PUT",
        "url": "Observation/obs-2094"
      }
    },
    {
      "resource": {
        "resourceType": "Observation",
        "id": "obs-8021",
        "status": "final",
        "category": [
          {
            "coding": [
              {
                "system": "http://terminology.hl7.org/CodeSystem/observation-category",
                "code": "laboratory",
                "display": "Laboratory"
              }
            ]
          }
        ],
        "code": {
          "coding": [
            {
              "system": "http://loinc.org",
              "code": "2339-0",
              "display": "Glucose"
            }
          ]
        },
        "subject": {
          "reference": "Patient/patient-7568",
          "display": "Jessica Williams"
        },
        "effectiveDateTime": "2025-06-03T18:23:22.550Z",
        "valueQuantity": {
          "value": 90,
          "unit": "mg/dL",
          "system": "http://unitsofmeasure.org",
          "code": "mg/dL"
        }
      },
      "request": {
        "method": "PUT",
        "url": "Observation/obs-8021"
      }
    },
    {
      "resource": {
        "resourceType": "Observation",
        "id": "obs-7264",
        "status": "final",
        "category": [
          {
            "coding": [
              {
                "system": "http://terminology.hl7.org/CodeSystem/observation-category",
                "code": "laboratory",
                "display": "Laboratory"
              }
            ]
          }
        ],
        "code": {
          "coding": [
            {
              "system": "http://loinc.org",
              "code": "2160-0",
              "display": "Creatinine"
            }
          ]
        },
        "subject": {
          "reference": "Patient/patient-7568",
          "display": "Jessica Williams"
        },
        "effectiveDateTime": "2025-04-10T19:23:22.550Z",
        "valueQuantity": {
          "value": 0.9,
          "unit": "mg/dL",
          "system": "http://unitsofmeasure.org",
          "code": "mg/dL"
        }
      },
      "request": {
        "method": "PUT",
        "url": "Observation/obs-7264"
      }
    },
    {
      "resource": {
        "resourceType": "Observation",
        "id": "obs-9343",
        "status": "final",
        "category": [
          {
            "coding": [
              {
                "system": "http://terminology.hl7.org/CodeSystem/observation-category",
                "code": "laboratory",
                "display": "Laboratory"
              }
            ]
          }
        ],
        "code": {
          "coding": [
            {
              "system": "http://loinc.org",
              "code": "2160-0",
              "display": "Creatinine"
            }
          ]
        },
        "subject": {
          "reference": "Patient/patient-7568",
          "display": "Jessica Williams"
        },
        "effectiveDateTime": "2025-06-19T18:23:22.550Z",
        "valueQuantity": {
          "value": 1.1,
          "unit": "mg/dL",
          "system": "http://unitsofmeasure.org",
          "code": "mg/dL"
        }
      },
      "request": {
        "method": "PUT",
        "url": "Observation/obs-9343"
      }
    },
    {
      "resource": {
        "resourceType": "Observation",
        "id": "obs-8166",
        "status": "final",
        "category": [
          {
            "coding": [
              {
                "system": "http://terminology.hl7.org/CodeSystem/observation-category",
                "code": "laboratory",
                "display": "Laboratory"
              }
            ]
          }
        ],
        "code": {
          "coding": [
            {
              "system": "http://loinc.org",
              "code": "2160-0",
              "display": "Creatinine"
            }
          ]
        },
        "subject": {
          "reference": "Patient/patient-7568",
          "display": "Jessica Williams"
        },
        "effectiveDateTime": "2025-05-29T18:23:22.550Z",
        "valueQuantity": {
          "value": 0.8,
          "unit": "mg/dL",
          "system": "http://unitsofmeasure.org",
          "code": "mg/dL"
        }
      },
      "request": {
        "method": "PUT",
        "url": "Observation/obs-8166"
      }
    },
    {
      "resource": {
        "resourceType": "Observation",
        "id": "obs-3660",
        "status": "final",
        "category": [
          {
            "coding": [
              {
                "system": "http://terminology.hl7.org/CodeSystem/observation-category",
                "code": "laboratory",
                "display": "Laboratory"
              }
            ]
          }
        ],
        "code": {
          "coding": [
            {
              "system": "http://loinc.org",
              "code": "2160-0",
              "display": "Creatinine"
            }
          ]
        },
        "subject": {
          "reference": "Patient/patient-7568",
          "display": "Jessica Williams"
        },
        "effectiveDateTime": "2025-05-30T18:23:22.550Z",
        "valueQuantity": {
          "value": 0.9,
          "unit": "mg/dL",
          "system": "http://unitsofmeasure.org",
          "code": "mg/dL"
        }
      },
      "request": {
        "method": "PUT",
        "url": "Observation/obs-3660"
      }
    },
    {
      "resource": {
        "resourceType": "Observation",
        "id": "obs-2340",
        "status": "final",
        "category": [
          {
            "coding": [
              {
                "system": "http://terminology.hl7.org/CodeSystem/observation-category",
                "code": "laboratory",
                "display": "Laboratory"
              }
            ]
          }
        ],
        "code": {
          "coding": [
            {
              "system": "http://loinc.org",
              "code": "2160-0",
              "display": "Creatinine"
            }
          ]
        },
        "subject": {
          "reference": "Patient/patient-7568",
          "display": "Jessica Williams"
        },
        "effectiveDateTime": "2025-04-13T19:23:22.550Z",
        "valueQuantity": {
          "value": 0.7,
          "unit": "mg/dL",
          "system": "http://unitsofmeasure.org",
          "code": "mg/dL"
        }
      },
      "request": {
        "method": "PUT",
        "url": "Observation/obs-2340"
      }
    },
    {
      "resource": {
        "resourceType": "Observation",
        "id": "obs-0606",
        "status": "final",
        "category": [
          {
            "coding": [
              {
                "system": "http://terminology.hl7.org/CodeSystem/observation-category",
                "code": "vital-signs",
                "display": "Vital Signs"
              }
            ]
          }
        ],
        "code": {
          "coding": [
            {
              "system": "http://loinc.org",
              "code": "8867-4",
              "display": "Heart rate"
            }
          ]
        },
        "subject": {
          "reference": "Patient/patient-9912",
          "display": "Robert Brown"
        },
        "effectiveDateTime": "2025-05-09T18:23:22.550Z",
        "valueQuantity": {
          "value": 94,
          "unit": "beats/minute",
          "system": "http://unitsofmeasure.org",
          "code": "/min"
        }
      },
      "request": {
        "method": "PUT",
        "url": "Observation/obs-0606"
      }
    },
    {
      "resource": {
        "resourceType": "Observation",
        "id": "obs-5311",
        "status": "final",
        "category": [
          {
            "coding": [
              {
                "system": "http://terminology.hl7.org/CodeSystem/observation-category",
                "code": "vital-signs",
                "display": "Vital Signs"
              }
            ]
          }
        ],
        "code": {
          "coding": [
            {
              "system": "http://loinc.org",
              "code": "8867-4",
              "display": "Heart rate"
            }
          ]
        },
        "subject": {
          "reference": "Patient/patient-9912",
          "display": "Robert Brown"
        },
        "effectiveDateTime": "2025-06-14T18:23:22.550Z",
        "valueQuantity": {
          "value": 98,
          "unit": "beats/minute",
          "system": "http://unitsofmeasure.org",
          "code": "/min"
        }
      },
      "request": {
        "method": "PUT",
        "url": "Observation/obs-5311"
      }
    },
    {
      "resource": {
        "resourceType": "Observation",
        "id": "obs-6347",
        "status": "final",
        "category": [
          {
            "coding": [
              {
                "system": "http://terminology.hl7.org/CodeSystem/observation-category",
                "code": "vital-signs",
                "display": "Vital Signs"
              }
            ]
          }
        ],
        "code": {
          "coding": [
            {
              "system": "http://loinc.org",
              "code": "8867-4",
              "display": "Heart rate"
            }
          ]
        },
        "subject": {
          "reference": "Patient/patient-9912",
          "display": "Robert Brown"
        },
        "effectiveDateTime": "2025-06-17T18:23:22.550Z",
        "valueQuantity": {
          "value": 84,
          "unit": "beats/minute",
          "system": "http://unitsofmeasure.org",
          "code": "/min"
        }
      },
      "request": {
        "method": "PUT",
        "url": "Observation/obs-6347"
      }
    },
    {
      "resource": {
        "resourceType": "Observation",
        "id": "obs-4015",
        "status": "final",
        "category": [
          {
            "coding": [
              {
                "system": "http://terminology.hl7.org/CodeSystem/observation-category",
                "code": "vital-signs",
                "display": "Vital Signs"
              }
            ]
          }
        ],
        "code": {
          "coding": [
            {
              "system": "http://loinc.org",
              "code": "8867-4",
              "display": "Heart rate"
            }
          ]
        },
        "subject": {
          "reference": "Patient/patient-9912",
          "display": "Robert Brown"
        },
        "effectiveDateTime": "2025-05-20T18:23:22.550Z",
        "valueQuantity": {
          "value": 99,
          "unit": "beats/minute",
          "system": "http://unitsofmeasure.org",
          "code": "/min"
        }
      },
      "request": {
        "method": "PUT",
        "url": "Observation/obs-4015"
      }
    },
    {
      "resource": {
        "resourceType": "Observation",
        "id": "obs-5154",
        "status": "final",
        "category": [
          {
            "coding": [
              {
                "system": "http://terminology.hl7.org/CodeSystem/observation-category",
                "code": "vital-signs",
                "display": "Vital Signs"
              }
            ]
          }
        ],
        "code": {
          "coding": [
            {
              "system": "http://loinc.org",
              "code": "8867-4",
              "display": "Heart rate"
            }
          ]
        },
        "subject": {
          "reference": "Patient/patient-9912",
          "display": "Robert Brown"
        },
        "effectiveDateTime": "2025-06-27T18:23:22.550Z",
        "valueQuantity": {
          "value": 79,
          "unit": "beats/minute",
          "system": "http://unitsofmeasure.org",
          "code": "/min"
        }
      },
      "request": {
        "method": "PUT",
        "url": "Observation/obs-5154"
      }
    },
    {
      "resource": {
        "resourceType": "Observation",
        "id": "obs-4122",
        "status": "final",
        "category": [
          {
            "coding": [
              {
                "system": "http://terminology.hl7.org/CodeSystem/observation-category",
                "code": "vital-signs",
                "display": "Vital Signs"
              }
            ]
          }
        ],
        "code": {
          "coding": [
            {
              "system": "http://loinc.org",
              "code": "8480-6",
              "display": "Systolic blood pressure"
            }
          ]
        },
        "subject": {
          "reference": "Patient/patient-9912",
          "display": "Robert Brown"
        },
        "effectiveDateTime": "2025-05-28T18:23:22.550Z",
        "valueQuantity": {
          "value": 114,
          "unit": "mmHg",
          "system": "http://unitsofmeasure.org",
          "code": "mm[Hg]"
        }
      },
      "request": {
        "method": "PUT",
        "url": "Observation/obs-4122"
      }
    },
    {
      "resource": {
        "resourceType": "Observation",
        "id": "obs-0244",
        "status": "final",
        "category": [
          {
            "coding": [
              {
                "system": "http://terminology.hl7.org/CodeSystem/observation-category",
                "code": "vital-signs",
                "display": "Vital Signs"
              }
            ]
          }
        ],
        "code": {
          "coding": [
            {
              "system": "http://loinc.org",
              "code": "8480-6",
              "display": "Systolic blood pressure"
            }
          ]
        },
        "subject": {
          "reference": "Patient/patient-9912",
          "display": "Robert Brown"
        },
        "effectiveDateTime": "2025-05-30T18:23:22.550Z",
        "valueQuantity": {
          "value": 106,
          "unit": "mmHg",
          "system": "http://unitsofmeasure.org",
          "code": "mm[Hg]"
        }
      },
      "request": {
        "method": "PUT",
        "url": "Observation/obs-0244"
      }
    },
    {
      "resource": {
        "resourceType": "Observation",
        "id": "obs-9242",
        "status": "final",
        "category": [
          {
            "coding": [
              {
                "system": "http://terminology.hl7.org/CodeSystem/observation-category",
                "code": "vital-signs",
                "display": "Vital Signs"
              }
            ]
          }
        ],
        "code": {
          "coding": [
            {
              "system": "http://loinc.org",
              "code": "8480-6",
              "display": "Systolic blood pressure"
            }
          ]
        },
        "subject": {
          "reference": "Patient/patient-9912",
          "display": "Robert Brown"
        },
        "effectiveDateTime": "2025-05-04T18:23:22.550Z",
        "valueQuantity": {
          "value": 105,
          "unit": "mmHg",
          "system": "http://unitsofmeasure.org",
          "code": "mm[Hg]"
        }
      },
      "request": {
        "method": "PUT",
        "url": "Observation/obs-9242"
      }
    },
    {
      "resource": {
        "resourceType": "Observation",
        "id": "obs-9550",
        "status": "final",
        "category": [
          {
            "coding": [
              {
                "system": "http://terminology.hl7.org/CodeSystem/observation-category",
                "code": "vital-signs",
                "display": "Vital Signs"
              }
            ]
          }
        ],
        "code": {
          "coding": [
            {
              "system": "http://loinc.org",
              "code": "8480-6",
              "display": "Systolic blood pressure"
            }
          ]
        },
        "subject": {
          "reference": "Patient/patient-9912",
          "display": "Robert Brown"
        },
        "effectiveDateTime": "2025-05-30T18:23:22.550Z",
        "valueQuantity": {
          "value": 121,
          "unit": "mmHg",
          "system": "http://unitsofmeasure.org",
          "code": "mm[Hg]"
        }
      },
      "request": {
        "method": "PUT",
        "url": "Observation/obs-9550"
      }
    },
    {
      "resource": {
        "resourceType": "Observation",
        "id": "obs-7304",
        "status": "final",
        "category": [
          {
            "coding": [
              {
                "system": "http://terminology.hl7.org/CodeSystem/observation-category",
                "code": "vital-signs",
                "display": "Vital Signs"
              }
            ]
          }
        ],
        "code": {
          "coding": [
            {
              "system": "http://loinc.org",
              "code": "8480-6",
              "display": "Systolic blood pressure"
            }
          ]
        },
        "subject": {
          "reference": "Patient/patient-9912",
          "display": "Robert Brown"
        },
        "effectiveDateTime": "2025-05-31T18:23:22.550Z",
        "valueQuantity": {
          "value": 140,
          "unit": "mmHg",
          "system": "http://unitsofmeasure.org",
          "code": "mm[Hg]"
        }
      },
      "request": {
        "method": "PUT",
        "url": "Observation/obs-7304"
      }
    },
    {
      "resource": {
        "resourceType": "Observation",
        "id": "obs-9667",
        "status": "final",
        "category": [
          {
            "coding": [
              {
                "system": "http://terminology.hl7.org/CodeSystem/observation-category",
                "code": "laboratory",
                "display": "Laboratory"
              }
            ]
          }
        ],
        "code": {
          "coding": [
            {
              "system": "http://loinc.org",
              "code": "2339-0",
              "display": "Glucose"
            }
          ]
        },
        "subject": {
          "reference": "Patient/patient-9912",
          "display": "Robert Brown"
        },
        "effectiveDateTime": "2025-05-26T18:23:22.550Z",
        "valueQuantity": {
          "value": 105,
          "unit": "mg/dL",
          "system": "http://unitsofmeasure.org",
          "code": "mg/dL"
        }
      },
      "request": {
        "method": "PUT",
        "url": "Observation/obs-9667"
      }
    },
    {
      "resource": {
        "resourceType": "Observation",
        "id": "obs-4599",
        "status": "final",
        "category": [
          {
            "coding": [
              {
                "system": "http://terminology.hl7.org/CodeSystem/observation-category",
                "code": "laboratory",
                "display": "Laboratory"
              }
            ]
          }
        ],
        "code": {
          "coding": [
            {
              "system": "http://loinc.org",
              "code": "2339-0",
              "display": "Glucose"
            }
          ]
        },
        "subject": {
          "reference": "Patient/patient-9912",
          "display": "Robert Brown"
        },
        "effectiveDateTime": "2025-04-19T19:23:22.550Z",
        "valueQuantity": {
          "value": 77,
          "unit": "mg/dL",
          "system": "http://unitsofmeasure.org",
          "code": "mg/dL"
        }
      },
      "request": {
        "method": "PUT",
        "url": "Observation/obs-4599"
      }
    },
    {
      "resource": {
        "resourceType": "Observation",
        "id": "obs-5984",
        "status": "final",
        "category": [
          {
            "coding": [
              {
                "system": "http://terminology.hl7.org/CodeSystem/observation-category",
                "code": "laboratory",
                "display": "Laboratory"
              }
            ]
          }
        ],
        "code": {
          "coding": [
            {
              "system": "http://loinc.org",
              "code": "2339-0",
              "display": "Glucose"
            }
          ]
        },
        "subject": {
          "reference": "Patient/patient-9912",
          "display": "Robert Brown"
        },
        "effectiveDateTime": "2025-04-21T19:23:22.550Z",
        "valueQuantity": {
          "value": 97,
          "unit": "mg/dL",
          "system": "http://unitsofmeasure.org",
          "code": "mg/dL"
        }
      },
      "request": {
        "method": "PUT",
        "url": "Observation/obs-5984"
      }
    },
    {
      "resource": {
        "resourceType": "Observation",
        "id": "obs-7571",
        "status": "final",
        "category": [
          {
            "coding": [
              {
                "system": "http://terminology.hl7.org/CodeSystem/observation-category",
                "code": "laboratory",
                "display": "Laboratory"
              }
            ]
          }
        ],
        "code": {
          "coding": [
            {
              "system": "http://loinc.org",
              "code": "2339-0",
              "display": "Glucose"
            }
          ]
        },
        "subject": {
          "reference": "Patient/patient-9912",
          "display": "Robert Brown"
        },
        "effectiveDateTime": "2025-07-02T18:23:22.550Z",
        "valueQuantity": {
          "value": 83,
          "unit": "mg/dL",
          "system": "http://unitsofmeasure.org",
          "code": "mg/dL"
        }
      },
      "request": {
        "method": "PUT",
        "url": "Observation/obs-7571"
      }
    },
    {
      "resource": {
        "resourceType": "Observation",
        "id": "obs-9582",
        "status": "final",
        "category": [
          {
            "coding": [
              {
                "system": "http://terminology.hl7.org/CodeSystem/observation-category",
                "code": "laboratory",
                "display": "Laboratory"
              }
            ]
          }
        ],
        "code": {
          "coding": [
            {
              "system": "http://loinc.org",
              "code": "2339-0",
              "display": "Glucose"
            }
          ]
        },
        "subject": {
          "reference": "Patient/patient-9912",
          "display": "Robert Brown"
        },
        "effectiveDateTime": "2025-06-16T18:23:22.550Z",
        "valueQuantity": {
          "value": 115,
          "unit": "mg/dL",
          "system": "http://unitsofmeasure.org",
          "code": "mg/dL"
        }
      },
      "request": {
        "method": "PUT",
        "url": "Observation/obs-9582"
      }
    },
    {
      "resource": {
        "resourceType": "Observation",
        "id": "obs-1310",
        "status": "final",
        "category": [
          {
            "coding": [
              {
                "system": "http://terminology.hl7.org/CodeSystem/observation-category",
                "code": "laboratory",
                "display": "Laboratory"
              }
            ]
          }
        ],
        "code": {
          "coding": [
            {
              "system": "http://loinc.org",
              "code": "2160-0",
              "display": "Creatinine"
            }
          ]
        },
        "subject": {
          "reference": "Patient/patient-9912",
          "display": "Robert Brown"
        },
        "effectiveDateTime": "2025-05-27T18:23:22.550Z",
        "valueQuantity": {
          "value": 1.1,
          "unit": "mg/dL",
          "system": "http://unitsofmeasure.org",
          "code": "mg/dL"
        }
      },
      "request": {
        "method": "PUT",
        "url": "Observation/obs-1310"
      }
    },
    {
      "resource": {
        "resourceType": "Observation",
        "id": "obs-0904",
        "status": "final",
        "category": [
          {
            "coding": [
              {
                "system": "http://terminology.hl7.org/CodeSystem/observation-category",
                "code": "laboratory",
                "display": "Laboratory"
              }
            ]
          }
        ],
        "code": {
          "coding": [
            {
              "system": "http://loinc.org",
              "code": "2160-0",
              "display": "Creatinine"
            }
          ]
        },
        "subject": {
          "reference": "Patient/patient-9912",
          "display": "Robert Brown"
        },
        "effectiveDateTime": "2025-06-05T18:23:22.550Z",
        "valueQuantity": {
          "value": 1.1,
          "unit": "mg/dL",
          "system": "http://unitsofmeasure.org",
          "code": "mg/dL"
        }
      },
      "request": {
        "method": "PUT",
        "url": "Observation/obs-0904"
      }
    },
    {
      "resource": {
        "resourceType": "Observation",
        "id": "obs-6519",
        "status": "final",
        "category": [
          {
            "coding": [
              {
                "system": "http://terminology.hl7.org/CodeSystem/observation-category",
                "code": "laboratory",
                "display": "Laboratory"
              }
            ]
          }
        ],
        "code": {
          "coding": [
            {
              "system": "http://loinc.org",
              "code": "2160-0",
              "display": "Creatinine"
            }
          ]
        },
        "subject": {
          "reference": "Patient/patient-9912",
          "display": "Robert Brown"
        },
        "effectiveDateTime": "2025-06-06T18:23:22.550Z",
        "valueQuantity": {
          "value": 1,
          "unit": "mg/dL",
          "system": "http://unitsofmeasure.org",
          "code": "mg/dL"
        }
      },
      "request": {
        "method": "PUT",
        "url": "Observation/obs-6519"
      }
    },
    {
      "resource": {
        "resourceType": "Observation",
        "id": "obs-7174",
        "status": "final",
        "category": [
          {
            "coding": [
              {
                "system": "http://terminology.hl7.org/CodeSystem/observation-category",
                "code": "laboratory",
                "display": "Laboratory"
              }
            ]
          }
        ],
        "code": {
          "coding": [
            {
              "system": "http://loinc.org",
              "code": "2160-0",
              "display": "Creatinine"
            }
          ]
        },
        "subject": {
          "reference": "Patient/patient-9912",
          "display": "Robert Brown"
        },
        "effectiveDateTime": "2025-05-14T18:23:22.550Z",
        "valueQuantity": {
          "value": 0.8,
          "unit": "mg/dL",
          "system": "http://unitsofmeasure.org",
          "code": "mg/dL"
        }
      },
      "request": {
        "method": "PUT",
        "url": "Observation/obs-7174"
      }
    },
    {
      "resource": {
        "resourceType": "Observation",
        "id": "obs-5695",
        "status": "final",
        "category": [
          {
            "coding": [
              {
                "system": "http://terminology.hl7.org/CodeSystem/observation-category",
                "code": "laboratory",
                "display": "Laboratory"
              }
            ]
          }
        ],
        "code": {
          "coding": [
            {
              "system": "http://loinc.org",
              "code": "2160-0",
              "display": "Creatinine"
            }
          ]
        },
        "subject": {
          "reference": "Patient/patient-9912",
          "display": "Robert Brown"
        },
        "effectiveDateTime": "2025-06-20T18:23:22.550Z",
        "valueQuantity": {
          "value": 1.1,
          "unit": "mg/dL",
          "system": "http://unitsofmeasure.org",
          "code": "mg/dL"
        }
      },
      "request": {
        "method": "PUT",
        "url": "Observation/obs-5695"
      }
    },
    {
      "resource": {
        "resourceType": "Observation",
        "id": "obs-9275",
        "status": "final",
        "category": [
          {
            "coding": [
              {
                "system": "http://terminology.hl7.org/CodeSystem/observation-category",
                "code": "vital-signs",
                "display": "Vital Signs"
              }
            ]
          }
        ],
        "code": {
          "coding": [
            {
              "system": "http://loinc.org",
              "code": "8867-4",
              "display": "Heart rate"
            }
          ]
        },
        "subject": {
          "reference": "Patient/patient-0510",
          "display": "James Jones"
        },
        "effectiveDateTime": "2025-05-13T18:23:22.550Z",
        "valueQuantity": {
          "value": 83,
          "unit": "beats/minute",
          "system": "http://unitsofmeasure.org",
          "code": "/min"
        }
      },
      "request": {
        "method": "PUT",
        "url": "Observation/obs-9275"
      }
    },
    {
      "resource": {
        "resourceType": "Observation",
        "id": "obs-0830",
        "status": "final",
        "category": [
          {
            "coding": [
              {
                "system": "http://terminology.hl7.org/CodeSystem/observation-category",
                "code": "vital-signs",
                "display": "Vital Signs"
              }
            ]
          }
        ],
        "code": {
          "coding": [
            {
              "system": "http://loinc.org",
              "code": "8867-4",
              "display": "Heart rate"
            }
          ]
        },
        "subject": {
          "reference": "Patient/patient-0510",
          "display": "James Jones"
        },
        "effectiveDateTime": "2025-05-04T18:23:22.550Z",
        "valueQuantity": {
          "value": 60,
          "unit": "beats/minute",
          "system": "http://unitsofmeasure.org",
          "code": "/min"
        }
      },
      "request": {
        "method": "PUT",
        "url": "Observation/obs-0830"
      }
    },
    {
      "resource": {
        "resourceType": "Observation",
        "id": "obs-2175",
        "status": "final",
        "category": [
          {
            "coding": [
              {
                "system": "http://terminology.hl7.org/CodeSystem/observation-category",
                "code": "vital-signs",
                "display": "Vital Signs"
              }
            ]
          }
        ],
        "code": {
          "coding": [
            {
              "system": "http://loinc.org",
              "code": "8867-4",
              "display": "Heart rate"
            }
          ]
        },
        "subject": {
          "reference": "Patient/patient-0510",
          "display": "James Jones"
        },
        "effectiveDateTime": "2025-05-11T18:23:22.550Z",
        "valueQuantity": {
          "value": 93,
          "unit": "beats/minute",
          "system": "http://unitsofmeasure.org",
          "code": "/min"
        }
      },
      "request": {
        "method": "PUT",
        "url": "Observation/obs-2175"
      }
    },
    {
      "resource": {
        "resourceType": "Observation",
        "id": "obs-7183",
        "status": "final",
        "category": [
          {
            "coding": [
              {
                "system": "http://terminology.hl7.org/CodeSystem/observation-category",
                "code": "vital-signs",
                "display": "Vital Signs"
              }
            ]
          }
        ],
        "code": {
          "coding": [
            {
              "system": "http://loinc.org",
              "code": "8867-4",
              "display": "Heart rate"
            }
          ]
        },
        "subject": {
          "reference": "Patient/patient-0510",
          "display": "James Jones"
        },
        "effectiveDateTime": "2025-06-18T18:23:22.550Z",
        "valueQuantity": {
          "value": 74,
          "unit": "beats/minute",
          "system": "http://unitsofmeasure.org",
          "code": "/min"
        }
      },
      "request": {
        "method": "PUT",
        "url": "Observation/obs-7183"
      }
    },
    {
      "resource": {
        "resourceType": "Observation",
        "id": "obs-0380",
        "status": "final",
        "category": [
          {
            "coding": [
              {
                "system": "http://terminology.hl7.org/CodeSystem/observation-category",
                "code": "vital-signs",
                "display": "Vital Signs"
              }
            ]
          }
        ],
        "code": {
          "coding": [
            {
              "system": "http://loinc.org",
              "code": "8867-4",
              "display": "Heart rate"
            }
          ]
        },
        "subject": {
          "reference": "Patient/patient-0510",
          "display": "James Jones"
        },
        "effectiveDateTime": "2025-05-22T18:23:22.550Z",
        "valueQuantity": {
          "value": 68,
          "unit": "beats/minute",
          "system": "http://unitsofmeasure.org",
          "code": "/min"
        }
      },
      "request": {
        "method": "PUT",
        "url": "Observation/obs-0380"
      }
    },
    {
      "resource": {
        "resourceType": "Observation",
        "id": "obs-9922",
        "status": "final",
        "category": [
          {
            "coding": [
              {
                "system": "http://terminology.hl7.org/CodeSystem/observation-category",
                "code": "vital-signs",
                "display": "Vital Signs"
              }
            ]
          }
        ],
        "code": {
          "coding": [
            {
              "system": "http://loinc.org",
              "code": "8480-6",
              "display": "Systolic blood pressure"
            }
          ]
        },
        "subject": {
          "reference": "Patient/patient-0510",
          "display": "James Jones"
        },
        "effectiveDateTime": "2025-04-24T19:23:22.550Z",
        "valueQuantity": {
          "value": 110,
          "unit": "mmHg",
          "system": "http://unitsofmeasure.org",
          "code": "mm[Hg]"
        }
      },
      "request": {
        "method": "PUT",
        "url": "Observation/obs-9922"
      }
    },
    {
      "resource": {
        "resourceType": "Observation",
        "id": "obs-2762",
        "status": "final",
        "category": [
          {
            "coding": [
              {
                "system": "http://terminology.hl7.org/CodeSystem/observation-category",
                "code": "vital-signs",
                "display": "Vital Signs"
              }
            ]
          }
        ],
        "code": {
          "coding": [
            {
              "system": "http://loinc.org",
              "code": "8480-6",
              "display": "Systolic blood pressure"
            }
          ]
        },
        "subject": {
          "reference": "Patient/patient-0510",
          "display": "James Jones"
        },
        "effectiveDateTime": "2025-05-22T18:23:22.550Z",
        "valueQuantity": {
          "value": 117,
          "unit": "mmHg",
          "system": "http://unitsofmeasure.org",
          "code": "mm[Hg]"
        }
      },
      "request": {
        "method": "PUT",
        "url": "Observation/obs-2762"
      }
    },
    {
      "resource": {
        "resourceType": "Observation",
        "id": "obs-0370",
        "status": "final",
        "category": [
          {
            "coding": [
              {
                "system": "http://terminology.hl7.org/CodeSystem/observation-category",
                "code": "vital-signs",
                "display": "Vital Signs"
              }
            ]
          }
        ],
        "code": {
          "coding": [
            {
              "system": "http://loinc.org",
              "code": "8480-6",
              "display": "Systolic blood pressure"
            }
          ]
        },
        "subject": {
          "reference": "Patient/patient-0510",
          "display": "James Jones"
        },
        "effectiveDateTime": "2025-05-02T18:23:22.550Z",
        "valueQuantity": {
          "value": 103,
          "unit": "mmHg",
          "system": "http://unitsofmeasure.org",
          "code": "mm[Hg]"
        }
      },
      "request": {
        "method": "PUT",
        "url": "Observation/obs-0370"
      }
    },
    {
      "resource": {
        "resourceType": "Observation",
        "id": "obs-7421",
        "status": "final",
        "category": [
          {
            "coding": [
              {
                "system": "http://terminology.hl7.org/CodeSystem/observation-category",
                "code": "vital-signs",
                "display": "Vital Signs"
              }
            ]
          }
        ],
        "code": {
          "coding": [
            {
              "system": "http://loinc.org",
              "code": "8480-6",
              "display": "Systolic blood pressure"
            }
          ]
        },
        "subject": {
          "reference": "Patient/patient-0510",
          "display": "James Jones"
        },
        "effectiveDateTime": "2025-04-11T19:23:22.550Z",
        "valueQuantity": {
          "value": 137,
          "unit": "mmHg",
          "system": "http://unitsofmeasure.org",
          "code": "mm[Hg]"
        }
      },
      "request": {
        "method": "PUT",
        "url": "Observation/obs-7421"
      }
    },
    {
      "resource": {
        "resourceType": "Observation",
        "id": "obs-8717",
        "status": "final",
        "category": [
          {
            "coding": [
              {
                "system": "http://terminology.hl7.org/CodeSystem/observation-category",
                "code": "vital-signs",
                "display": "Vital Signs"
              }
            ]
          }
        ],
        "code": {
          "coding": [
            {
              "system": "http://loinc.org",
              "code": "8480-6",
              "display": "Systolic blood pressure"
            }
          ]
        },
        "subject": {
          "reference": "Patient/patient-0510",
          "display": "James Jones"
        },
        "effectiveDateTime": "2025-05-04T18:23:22.550Z",
        "valueQuantity": {
          "value": 110,
          "unit": "mmHg",
          "system": "http://unitsofmeasure.org",
          "code": "mm[Hg]"
        }
      },
      "request": {
        "method": "PUT",
        "url": "Observation/obs-8717"
      }
    },
    {
      "resource": {
        "resourceType": "Observation",
        "id": "obs-1479",
        "status": "final",
        "category": [
          {
            "coding": [
              {
                "system": "http://terminology.hl7.org/CodeSystem/observation-category",
                "code": "laboratory",
                "display": "Laboratory"
              }
            ]
          }
        ],
        "code": {
          "coding": [
            {
              "system": "http://loinc.org",
              "code": "2339-0",
              "display": "Glucose"
            }
          ]
        },
        "subject": {
          "reference": "Patient/patient-0510",
          "display": "James Jones"
        },
        "effectiveDateTime": "2025-05-23T18:23:22.550Z",
        "valueQuantity": {
          "value": 107,
          "unit": "mg/dL",
          "system": "http://unitsofmeasure.org",
          "code": "mg/dL"
        }
      },
      "request": {
        "method": "PUT",
        "url": "Observation/obs-1479"
      }
    },
    {
      "resource": {
        "resourceType": "Observation",
        "id": "obs-8085",
        "status": "final",
        "category": [
          {
            "coding": [
              {
                "system": "http://terminology.hl7.org/CodeSystem/observation-category",
                "code": "laboratory",
                "display": "Laboratory"
              }
            ]
          }
        ],
        "code": {
          "coding": [
            {
              "system": "http://loinc.org",
              "code": "2339-0",
              "display": "Glucose"
            }
          ]
        },
        "subject": {
          "reference": "Patient/patient-0510",
          "display": "James Jones"
        },
        "effectiveDateTime": "2025-04-29T18:23:22.550Z",
        "valueQuantity": {
          "value": 108,
          "unit": "mg/dL",
          "system": "http://unitsofmeasure.org",
          "code": "mg/dL"
        }
      },
      "request": {
        "method": "PUT",
        "url": "Observation/obs-8085"
      }
    },
    {
      "resource": {
        "resourceType": "Observation",
        "id": "obs-0753",
        "status": "final",
        "category": [
          {
            "coding": [
              {
                "system": "http://terminology.hl7.org/CodeSystem/observation-category",
                "code": "laboratory",
                "display": "Laboratory"
              }
            ]
          }
        ],
        "code": {
          "coding": [
            {
              "system": "http://loinc.org",
              "code": "2339-0",
              "display": "Glucose"
            }
          ]
        },
        "subject": {
          "reference": "Patient/patient-0510",
          "display": "James Jones"
        },
        "effectiveDateTime": "2025-05-20T18:23:22.550Z",
        "valueQuantity": {
          "value": 106,
          "unit": "mg/dL",
          "system": "http://unitsofmeasure.org",
          "code": "mg/dL"
        }
      },
      "request": {
        "method": "PUT",
        "url": "Observation/obs-0753"
      }
    },
    {
      "resource": {
        "resourceType": "Observation",
        "id": "obs-5819",
        "status": "final",
        "category": [
          {
            "coding": [
              {
                "system": "http://terminology.hl7.org/CodeSystem/observation-category",
                "code": "laboratory",
                "display": "Laboratory"
              }
            ]
          }
        ],
        "code": {
          "coding": [
            {
              "system": "http://loinc.org",
              "code": "2339-0",
              "display": "Glucose"
            }
          ]
        },
        "subject": {
          "reference": "Patient/patient-0510",
          "display": "James Jones"
        },
        "effectiveDateTime": "2025-06-27T18:23:22.550Z",
        "valueQuantity": {
          "value": 109,
          "unit": "mg/dL",
          "system": "http://unitsofmeasure.org",
          "code": "mg/dL"
        }
      },
      "request": {
        "method": "PUT",
        "url": "Observation/obs-5819"
      }
    },
    {
      "resource": {
        "resourceType": "Observation",
        "id": "obs-7585",
        "status": "final",
        "category": [
          {
            "coding": [
              {
                "system": "http://terminology.hl7.org/CodeSystem/observation-category",
                "code": "laboratory",
                "display": "Laboratory"
              }
            ]
          }
        ],
        "code": {
          "coding": [
            {
              "system": "http://loinc.org",
              "code": "2339-0",
              "display": "Glucose"
            }
          ]
        },
        "subject": {
          "reference": "Patient/patient-0510",
          "display": "James Jones"
        },
        "effectiveDateTime": "2025-04-09T19:23:22.550Z",
        "valueQuantity": {
          "value": 90,
          "unit": "mg/dL",
          "system": "http://unitsofmeasure.org",
          "code": "mg/dL"
        }
      },
      "request": {
        "method": "PUT",
        "url": "Observation/obs-7585"
      }
    },
    {
      "resource": {
        "resourceType": "Observation",
        "id": "obs-9407",
        "status": "final",
        "category": [
          {
            "coding": [
              {
                "system": "http://terminology.hl7.org/CodeSystem/observation-category",
                "code": "laboratory",
                "display": "Laboratory"
              }
            ]
          }
        ],
        "code": {
          "coding": [
            {
              "system": "http://loinc.org",
              "code": "2160-0",
              "display": "Creatinine"
            }
          ]
        },
        "subject": {
          "reference": "Patient/patient-0510",
          "display": "James Jones"
        },
        "effectiveDateTime": "2025-05-13T18:23:22.550Z",
        "valueQuantity": {
          "value": 1.2,
          "unit": "mg/dL",
          "system": "http://unitsofmeasure.org",
          "code": "mg/dL"
        }
      },
      "request": {
        "method": "PUT",
        "url": "Observation/obs-9407"
      }
    },
    {
      "resource": {
        "resourceType": "Observation",
        "id": "obs-2674",
        "status": "final",
        "category": [
          {
            "coding": [
              {
                "system": "http://terminology.hl7.org/CodeSystem/observation-category",
                "code": "laboratory",
                "display": "Laboratory"
              }
            ]
          }
        ],
        "code": {
          "coding": [
            {
              "system": "http://loinc.org",
              "code": "2160-0",
              "display": "Creatinine"
            }
          ]
        },
        "subject": {
          "reference": "Patient/patient-0510",
          "display": "James Jones"
        },
        "effectiveDateTime": "2025-06-23T18:23:22.550Z",
        "valueQuantity": {
          "value": 0.9,
          "unit": "mg/dL",
          "system": "http://unitsofmeasure.org",
          "code": "mg/dL"
        }
      },
      "request": {
        "method": "PUT",
        "url": "Observation/obs-2674"
      }
    },
    {
      "resource": {
        "resourceType": "Observation",
        "id": "obs-9641",
        "status": "final",
        "category": [
          {
            "coding": [
              {
                "system": "http://terminology.hl7.org/CodeSystem/observation-category",
                "code": "laboratory",
                "display": "Laboratory"
              }
            ]
          }
        ],
        "code": {
          "coding": [
            {
              "system": "http://loinc.org",
              "code": "2160-0",
              "display": "Creatinine"
            }
          ]
        },
        "subject": {
          "reference": "Patient/patient-0510",
          "display": "James Jones"
        },
        "effectiveDateTime": "2025-05-12T18:23:22.550Z",
        "valueQuantity": {
          "value": 1.1,
          "unit": "mg/dL",
          "system": "http://unitsofmeasure.org",
          "code": "mg/dL"
        }
      },
      "request": {
        "method": "PUT",
        "url": "Observation/obs-9641"
      }
    },
    {
      "resource": {
        "resourceType": "Observation",
        "id": "obs-3919",
        "status": "final",
        "category": [
          {
            "coding": [
              {
                "system": "http://terminology.hl7.org/CodeSystem/observation-category",
                "code": "laboratory",
                "display": "Laboratory"
              }
            ]
          }
        ],
        "code": {
          "coding": [
            {
              "system": "http://loinc.org",
              "code": "2160-0",
              "display": "Creatinine"
            }
          ]
        },
        "subject": {
          "reference": "Patient/patient-0510",
          "display": "James Jones"
        },
        "effectiveDateTime": "2025-06-29T18:23:22.550Z",
        "valueQuantity": {
          "value": 0.7,
          "unit": "mg/dL",
          "system": "http://unitsofmeasure.org",
          "code": "mg/dL"
        }
      },
      "request": {
        "method": "PUT",
        "url": "Observation/obs-3919"
      }
    },
    {
      "resource": {
        "resourceType": "Observation",
        "id": "obs-2974",
        "status": "final",
        "category": [
          {
            "coding": [
              {
                "system": "http://terminology.hl7.org/CodeSystem/observation-category",
                "code": "laboratory",
                "display": "Laboratory"
              }
            ]
          }
        ],
        "code": {
          "coding": [
            {
              "system": "http://loinc.org",
              "code": "2160-0",
              "display": "Creatinine"
            }
          ]
        },
        "subject": {
          "reference": "Patient/patient-0510",
          "display": "James Jones"
        },
        "effectiveDateTime": "2025-04-06T19:23:22.550Z",
        "valueQuantity": {
          "value": 0.9,
          "unit": "mg/dL",
          "system": "http://unitsofmeasure.org",
          "code": "mg/dL"
        }
      },
      "request": {
        "method": "PUT",
        "url": "Observation/obs-2974"
      }
    },
    {
      "resource": {
        "resourceType": "Appointment",
        "id": "appt-9467",
        "status": "proposed",
        "start": "2025-07-24T18:23:22.550Z",
        "end": "2025-07-24T18:53:22.550Z",
        "participant": [
          {
            "actor": {
              "reference": "Patient/patient-8699",
              "display": "Sarah Smith"
            },
            "status": "accepted"
          },
          {
            "actor": {
              "reference": "Practitioner/pract-9477",
              "display": "Dr. Jennifer Smith"
            },
            "status": "accepted"
          },
          {
            "actor": {
              "reference": "Location/loc-8817",
              "display": "MediCare Hospital"
            },
            "status": "accepted"
          }
        ],
        "description": "Follow-up with Dr. Smith",
        "serviceType": [
          {
            "coding": [
              {
                "system": "http://terminology.hl7.org/CodeSystem/service-type",
                "code": "124",
                "display": "General Practice"
              }
            ]
          }
        ]
      },
      "request": {
        "method": "PUT",
        "url": "Appointment/appt-9467"
      }
    },
    {
      "resource": {
        "resourceType": "Appointment",
        "id": "appt-7233",
        "status": "booked",
        "start": "2025-07-13T18:23:22.551Z",
        "end": "2025-07-13T18:53:22.551Z",
        "participant": [
          {
            "actor": {
              "reference": "Patient/patient-8699",
              "display": "Sarah Smith"
            },
            "status": "accepted"
          },
          {
            "actor": {
              "reference": "Practitioner/pract-3885",
              "display": "Dr. Robert Johnson"
            },
            "status": "accepted"
          },
          {
            "actor": {
              "reference": "Location/loc-8817",
              "display": "MediCare Hospital"
            },
            "status": "accepted"
          }
        ],
        "description": "Annual physical with Dr. Johnson",
        "serviceType": [
          {
            "coding": [
              {
                "system": "http://terminology.hl7.org/CodeSystem/service-type",
                "code": "124",
                "display": "General Practice"
              }
            ]
          }
        ]
      },
      "request": {
        "method": "PUT",
        "url": "Appointment/appt-7233"
      }
    },
    {
      "resource": {
        "resourceType": "Appointment",
        "id": "appt-8917",
        "status": "cancelled",
        "start": "2025-06-10T18:23:22.551Z",
        "end": "2025-06-10T18:53:22.551Z",
        "participant": [
          {
            "actor": {
              "reference": "Patient/patient-8699",
              "display": "Sarah Smith"
            },
            "status": "accepted"
          },
          {
            "actor": {
              "reference": "Practitioner/pract-9477",
              "display": "Dr. Jennifer Smith"
            },
            "status": "accepted"
          },
          {
            "actor": {
              "reference": "Location/loc-8817",
              "display": "MediCare Hospital"
            },
            "status": "accepted"
          }
        ],
        "description": "Consultation with Dr. Smith",
        "serviceType": [
          {
            "coding": [
              {
                "system": "http://terminology.hl7.org/CodeSystem/service-type",
                "code": "124",
                "display": "General Practice"
              }
            ]
          }
        ]
      },
      "request": {
        "method": "PUT",
        "url": "Appointment/appt-8917"
      }
    },
    {
      "resource": {
        "resourceType": "Appointment",
        "id": "appt-6992",
        "status": "booked",
        "start": "2025-07-09T18:23:22.551Z",
        "end": "2025-07-09T18:53:22.551Z",
        "participant": [
          {
            "actor": {
              "reference": "Patient/patient-9288",
              "display": "Michael Johnson"
            },
            "status": "accepted"
          },
          {
            "actor": {
              "reference": "Practitioner/pract-9477",
              "display": "Dr. Jennifer Smith"
            },
            "status": "accepted"
          },
          {
            "actor": {
              "reference": "Location/loc-8817",
              "display": "MediCare Hospital"
            },
            "status": "accepted"
          }
        ],
        "description": "Follow-up with Dr. Smith",
        "serviceType": [
          {
            "coding": [
              {
                "system": "http://terminology.hl7.org/CodeSystem/service-type",
                "code": "124",
                "display": "General Practice"
              }
            ]
          }
        ]
      },
      "request": {
        "method": "PUT",
        "url": "Appointment/appt-6992"
      }
    },
    {
      "resource": {
        "resourceType": "Appointment",
        "id": "appt-6501",
        "status": "fulfilled",
        "start": "2025-06-15T18:23:22.551Z",
        "end": "2025-06-15T18:53:22.551Z",
        "participant": [
          {
            "actor": {
              "reference": "Patient/patient-9288",
              "display": "Michael Johnson"
            },
            "status": "accepted"
          },
          {
            "actor": {
              "reference": "Practitioner/pract-9477",
              "display": "Dr. Jennifer Smith"
            },
            "status": "accepted"
          },
          {
            "actor": {
              "reference": "Location/loc-8709",
              "display": "MediCare Clinic"
            },
            "status": "accepted"
          }
        ],
        "description": "Annual physical with Dr. Smith",
        "serviceType": [
          {
            "coding": [
              {
                "system": "http://terminology.hl7.org/CodeSystem/service-type",
                "code": "124",
                "display": "General Practice"
              }
            ]
          }
        ]
      },
      "request": {
        "method": "PUT",
        "url": "Appointment/appt-6501"
      }
    },
    {
      "resource": {
        "resourceType": "Appointment",
        "id": "appt-3425",
        "status": "cancelled",
        "start": "2025-06-09T18:23:22.551Z",
        "end": "2025-06-09T18:53:22.551Z",
        "participant": [
          {
            "actor": {
              "reference": "Patient/patient-9288",
              "display": "Michael Johnson"
            },
            "status": "accepted"
          },
          {
            "actor": {
              "reference": "Practitioner/pract-9477",
              "display": "Dr. Jennifer Smith"
            },
            "status": "accepted"
          },
          {
            "actor": {
              "reference": "Location/loc-8709",
              "display": "MediCare Clinic"
            },
            "status": "accepted"
          }
        ],
        "description": "Consultation with Dr. Smith",
        "serviceType": [
          {
            "coding": [
              {
                "system": "http://terminology.hl7.org/CodeSystem/service-type",
                "code": "124",
                "display": "General Practice"
              }
            ]
          }
        ]
      },
      "request": {
        "method": "PUT",
        "url": "Appointment/appt-3425"
      }
    },
    {
      "resource": {
        "resourceType": "Appointment",
        "id": "appt-3763",
        "status": "proposed",
        "start": "2025-07-29T18:23:22.551Z",
        "end": "2025-07-29T18:53:22.551Z",
        "participant": [
          {
            "actor": {
              "reference": "Patient/patient-7568",
              "display": "Jessica Williams"
            },
            "status": "accepted"
          },
          {
            "actor": {
              "reference": "Practitioner/pract-9477",
              "display": "Dr. Jennifer Smith"
            },
            "status": "accepted"
          },
          {
            "actor": {
              "reference": "Location/loc-8817",
              "display": "MediCare Hospital"
            },
            "status": "accepted"
          }
        ],
        "description": "Follow-up with Dr. Smith",
        "serviceType": [
          {
            "coding": [
              {
                "system": "http://terminology.hl7.org/CodeSystem/service-type",
                "code": "124",
                "display": "General Practice"
              }
            ]
          }
        ]
      },
      "request": {
        "method": "PUT",
        "url": "Appointment/appt-3763"
      }
    },
    {
      "resource": {
        "resourceType": "Appointment",
        "id": "appt-5703",
        "status": "fulfilled",
        "start": "2025-06-24T18:23:22.551Z",
        "end": "2025-06-24T18:53:22.551Z",
        "participant": [
          {
            "actor": {
              "reference": "Patient/patient-7568",
              "display": "Jessica Williams"
            },
            "status": "accepted"
          },
          {
            "actor": {
              "reference": "Practitioner/pract-7501",
              "display": "Dr. Elizabeth Davis"
            },
            "status": "accepted"
          },
          {
            "actor": {
              "reference": "Location/loc-8709",
              "display": "MediCare Clinic"
            },
            "status": "accepted"
          }
        ],
        "description": "Annual physical with Dr. Davis",
        "serviceType": [
          {
            "coding": [
              {
                "system": "http://terminology.hl7.org/CodeSystem/service-type",
                "code": "124",
                "display": "General Practice"
              }
            ]
          }
        ]
      },
      "request": {
        "method": "PUT",
        "url": "Appointment/appt-5703"
      }
    },
    {
      "resource": {
        "resourceType": "Appointment",
        "id": "appt-2667",
        "status": "fulfilled",
        "start": "2025-06-28T18:23:22.551Z",
        "end": "2025-06-28T18:53:22.551Z",
        "participant": [
          {
            "actor": {
              "reference": "Patient/patient-7568",
              "display": "Jessica Williams"
            },
            "status": "accepted"
          },
          {
            "actor": {
              "reference": "Practitioner/pract-7501",
              "display": "Dr. Elizabeth Davis"
            },
            "status": "accepted"
          },
          {
            "actor": {
              "reference": "Location/loc-8817",
              "display": "MediCare Hospital"
            },
            "status": "accepted"
          }
        ],
        "description": "Consultation with Dr. Davis",
        "serviceType": [
          {
            "coding": [
              {
                "system": "http://terminology.hl7.org/CodeSystem/service-type",
                "code": "124",
                "display": "General Practice"
              }
            ]
          }
        ]
      },
      "request": {
        "method": "PUT",
        "url": "Appointment/appt-2667"
      }
    },
    {
      "resource": {
        "resourceType": "Appointment",
        "id": "appt-9367",
        "status": "booked",
        "start": "2025-07-21T18:23:22.551Z",
        "end": "2025-07-21T18:53:22.551Z",
        "participant": [
          {
            "actor": {
              "reference": "Patient/patient-9912",
              "display": "Robert Brown"
            },
            "status": "accepted"
          },
          {
            "actor": {
              "reference": "Practitioner/pract-7501",
              "display": "Dr. Elizabeth Davis"
            },
            "status": "accepted"
          },
          {
            "actor": {
              "reference": "Location/loc-8817",
              "display": "MediCare Hospital"
            },
            "status": "accepted"
          }
        ],
        "description": "Follow-up with Dr. Davis",
        "serviceType": [
          {
            "coding": [
              {
                "system": "http://terminology.hl7.org/CodeSystem/service-type",
                "code": "124",
                "display": "General Practice"
              }
            ]
          }
        ]
      },
      "request": {
        "method": "PUT",
        "url": "Appointment/appt-9367"
      }
    },
    {
      "resource": {
        "resourceType": "Appointment",
        "id": "appt-0705",
        "status": "cancelled",
        "start": "2025-06-24T18:23:22.551Z",
        "end": "2025-06-24T18:53:22.551Z",
        "participant": [
          {
            "actor": {
              "reference": "Patient/patient-9912",
              "display": "Robert Brown"
            },
            "status": "accepted"
          },
          {
            "actor": {
              "reference": "Practitioner/pract-7501",
              "display": "Dr. Elizabeth Davis"
            },
            "status": "accepted"
          },
          {
            "actor": {
              "reference": "Location/loc-8817",
              "display": "MediCare Hospital"
            },
            "status": "accepted"
          }
        ],
        "description": "Annual physical with Dr. Davis",
        "serviceType": [
          {
            "coding": [
              {
                "system": "http://terminology.hl7.org/CodeSystem/service-type",
                "code": "124",
                "display": "General Practice"
              }
            ]
          }
        ]
      },
      "request": {
        "method": "PUT",
        "url": "Appointment/appt-0705"
      }
    },
    {
      "resource": {
        "resourceType": "Appointment",
        "id": "appt-3102",
        "status": "proposed",
        "start": "2025-07-16T18:23:22.552Z",
        "end": "2025-07-16T18:53:22.552Z",
        "participant": [
          {
            "actor": {
              "reference": "Patient/patient-9912",
              "display": "Robert Brown"
            },
            "status": "accepted"
          },
          {
            "actor": {
              "reference": "Practitioner/pract-3885",
              "display": "Dr. Robert Johnson"
            },
            "status": "accepted"
          },
          {
            "actor": {
              "reference": "Location/loc-8709",
              "display": "MediCare Clinic"
            },
            "status": "accepted"
          }
        ],
        "description": "Consultation with Dr. Johnson",
        "serviceType": [
          {
            "coding": [
              {
                "system": "http://terminology.hl7.org/CodeSystem/service-type",
                "code": "124",
                "display": "General Practice"
              }
            ]
          }
        ]
      },
      "request": {
        "method": "PUT",
        "url": "Appointment/appt-3102"
      }
    },
    {
      "resource": {
        "resourceType": "Appointment",
        "id": "appt-3778",
        "status": "proposed",
        "start": "2025-07-21T18:23:22.552Z",
        "end": "2025-07-21T18:53:22.552Z",
        "participant": [
          {
            "actor": {
              "reference": "Patient/patient-0510",
              "display": "James Jones"
            },
            "status": "accepted"
          },
          {
            "actor": {
              "reference": "Practitioner/pract-9477",
              "display": "Dr. Jennifer Smith"
            },
            "status": "accepted"
          },
          {
            "actor": {
              "reference": "Location/loc-8709",
              "display": "MediCare Clinic"
            },
            "status": "accepted"
          }
        ],
        "description": "Follow-up with Dr. Smith",
        "serviceType": [
          {
            "coding": [
              {
                "system": "http://terminology.hl7.org/CodeSystem/service-type",
                "code": "124",
                "display": "General Practice"
              }
            ]
          }
        ]
      },
      "request": {
        "method": "PUT",
        "url": "Appointment/appt-3778"
      }
    },
    {
      "resource": {
        "resourceType": "Appointment",
        "id": "appt-1496",
        "status": "cancelled",
        "start": "2025-06-28T18:23:22.552Z",
        "end": "2025-06-28T18:53:22.552Z",
        "participant": [
          {
            "actor": {
              "reference": "Patient/patient-0510",
              "display": "James Jones"
            },
            "status": "accepted"
          },
          {
            "actor": {
              "reference": "Practitioner/pract-7501",
              "display": "Dr. Elizabeth Davis"
            },
            "status": "accepted"
          },
          {
            "actor": {
              "reference": "Location/loc-8709",
              "display": "MediCare Clinic"
            },
            "status": "accepted"
          }
        ],
        "description": "Annual physical with Dr. Davis",
        "serviceType": [
          {
            "coding": [
              {
                "system": "http://terminology.hl7.org/CodeSystem/service-type",
                "code": "124",
                "display": "General Practice"
              }
            ]
          }
        ]
      },
      "request": {
        "method": "PUT",
        "url": "Appointment/appt-1496"
      }
    },
    {
      "resource": {
        "resourceType": "Appointment",
        "id": "appt-6703",
        "status": "booked",
        "start": "2025-07-17T18:23:22.552Z",
        "end": "2025-07-17T18:53:22.552Z",
        "participant": [
          {
            "actor": {
              "reference": "Patient/patient-0510",
              "display": "James Jones"
            },
            "status": "accepted"
          },
          {
            "actor": {
              "reference": "Practitioner/pract-7501",
              "display": "Dr. Elizabeth Davis"
            },
            "status": "accepted"
          },
          {
            "actor": {
              "reference": "Location/loc-8709",
              "display": "MediCare Clinic"
            },
            "status": "accepted"
          }
        ],
        "description": "Consultation with Dr. Davis",
        "serviceType": [
          {
            "coding": [
              {
                "system": "http://terminology.hl7.org/CodeSystem/service-type",
                "code": "124",
                "display": "General Practice"
              }
            ]
          }
        ]
      },
      "request": {
        "method": "PUT",
        "url": "Appointment/appt-6703"
      }
    }
  ]
}